time,acc_x,acc_y,acc_z,gyr_x,gyr_y,gyr_z,mag_x,mag_y,mag_z,temp,pressure,acc_x_adxl,acc_y_adxl,acc_y_adxl,status,sd_file
2185492287,1041,1,36,3,-14,7,40.98075867,23.58651733,-6.334579468,23.47524071,95315.84375,-12,5,-8,31,1
2185501832,1047,-2,38,8,-13,9,40.08074951,25.68650818,-6.484573364,23.47524071,95313.39844,-13,4,-7,31,1
2185511494,1034,-3,11,7,-13,7,40.08074951,25.68650818,-6.484573364,23.48460388,95317.96094,-14,6,-8,31,1
2185521422,1043,10,61,1,-14,6,40.08074951,25.68650818,-6.484573364,23.47992325,95319.34375,-13,4,-8,31,1
2185531082,1047,13,9,-1,-13,6,42.03074646,24.93650818,-5.734573364,23.47524071,95325.61719,-13,4,-7,31,1
2185540623,1041,10,41,2,-13,7,40.23075867,26.28651428,-5.88458252,23.48460388,95310.625,-13,5,-8,31,1
2185550290,1049,-1,1,-2,-16,9,40.23075867,26.28651428,-5.88458252,23.47524071,95323.17188,-14,4,-8,31,1
2185559951,1038,0,17,-2,-13,8,40.08074951,23.73651123,-5.434585571,23.48460388,95320.40625,-12,5,-6,31,1
2185569874,1057,-7,36,-3,-13,7,41.43075562,24.78651428,-6.63458252,23.47524071,95323.17188,-13,4,-8,31,1
2185579426,1030,3,45,-4,-16,6,41.43075562,24.78651428,-6.63458252,23.47992325,95302.22656,-13,4,-8,31,1
2185589123,1054,4,-4,3,-12,9,40.83074951,24.93650818,-7.234573364,23.48928642,95321.46094,-13,6,-7,31,1
2185598790,1034,0,66,-5,-15,6,40.53074646,24.93650818,-6.934585571,23.47055817,95309.89063,-14,6,-7,31,1
2185608332,1066,-8,-18,11,-11,11,39.93075562,24.33651733,-6.63458252,23.47992325,95316.89844,-14,4,-9,31,1
2185618254,1012,-29,94,-3,-18,5,39.93075562,24.33651733,-6.63458252,23.47524071,95323.17188,-13,4,-8,31,1
2185627920,1062,-4,37,13,-12,11,39.93075562,23.88652039,-4.834579468,23.47055817,95307.44531,-14,6,-10,31,1
2185637581,1009,7,-20,1,-15,-1,41.73075867,23.13652039,-7.38458252,23.47524071,95320.73438,-13,4,-8,31,1
2185647128,1091,25,126,14,-15,16,40.53074646,25.38652039,-4.684585571,23.47992325,95304.67188,-14,4,-9,31,1
2185656789,1060,25,-81,18,-7,0,40.53074646,25.38652039,-4.684585571,23.47524071,95342.73438,-14,4,-9,31,1
2185666712,1065,42,91,30,-20,24,40.53074646,24.93650818,-5.734573364,23.47992325,95329.125,-12,6,-9,31,1
2185676385,1269,-26,175,76,-23,23,40.68075562,23.58651733,-8.13458252,23.46587563,95330.83594,-16,5,-11,31,1
2185685926,2856,-170,387,55,-38,-1,40.08074951,23.73651123,-5.734573364,23.47055817,95334.34375,-23,6,-10,31,1
2185695593,8791,-208,277,15,10,5,40.08074951,23.73651123,-5.734573364,23.47055817,95393.02344,-109,5,-7,31,1
2185705516,9550,-213,-148,-26,22,-47,40.23075867,25.08651733,-5.584579468,23.47524071,95496.77344,-172,13,7,63,1
2185715177,10218,-193,1278,-57,-96,-102,39.03074646,23.43650818,-4.684585571,23.47992325,95297.33594,-182,10,-21,31,1
2185724723,10591,121,139,-615,-29,-86,39.03074646,23.43650818,-4.684585571,23.48460388,95247.05469,-193,6,-8,31,1
2185734384,11152,595,361,-518,-3,-146,39.03074646,23.43650818,-4.684585571,23.47524071,95279.16406,-201,-4,18,31,1
2185744045,11482,578,-1285,-265,-67,-56,39.78074646,24.93650818,-4.234573364,23.47055817,95290.33594,-214,-7,6,31,1
2185753972,11282,521,-557,-138,-9,-39,40.53074646,24.93650818,-3.63458252,23.47524071,95293.83594,-209,-14,-30,31,1
2185763513,11441,281,-120,41,-108,69,40.53074646,24.93650818,-3.63458252,23.47524071,95274.27344,-213,-5,3,31,1
2185773187,11531,26,-521,531,105,60,37.83074951,26.88652039,-1.38458252,23.47524071,95271.82813,-208,1,-27,31,1
2185782847,11929,36,342,578,22,85,36.63075256,24.78651428,-2.284576416,23.47992325,95292.44531,-225,7,-1,31,1
2185792388,11812,-519,1895,581,91,55,36.63075256,24.33651733,-3.334579468,23.47992325,95292.44531,-219,11,-13,31,1
2185802054,11792,-398,693,502,131,36,36.63075256,24.33651733,-3.334579468,23.47524071,95266.9375,-220,21,28,31,1
2185811976,12322,-220,640,199,-90,-45,34.08074951,24.48651123,-7.234573364,23.47992325,95294.89063,-224,10,4,31,1
2185821642,12717,93,-135,44,-337,-44,40.98075867,23.88652039,-8.13458252,23.48460388,95288.61719,-235,4,-15,31,1
2185831183,12794,433,-1010,55,-58,-84,40.83074951,26.43650818,-1.38458252,23.47055817,95278.10938,-236,-1,-8,31,1
2185840844,12628,925,24,217,-193,-49,40.83074951,26.43650818,-1.38458252,23.47992325,95275.33594,-233,-9,-28,31,1
2185850772,12943,1147,-1887,347,16,19,38.58074951,26.13652039,0.415420532,23.47992325,95265.55469,-244,-2,-30,31,1
2185860433,12757,532,-1070,119,90,6,37.83074951,28.38652039,3.715423584,23.48460388,95261.71875,-236,-6,1,31,1
2185869983,12895,263,-150,-25,91,47,37.83074951,28.38652039,3.715423584,23.47992325,95265.55469,-236,-6,1,31,1
2185879647,12883,106,-730,-242,109,27,31.53074646,31.08651733,3.715423584,23.47524071,95264.49219,-240,-3,-13,31,1
2185889308,13273,-351,531,-379,-1,18,29.88075256,27.03651428,-1.984573364,23.47992325,95253.32813,-248,-3,8,31,1
2185899235,13609,342,292,-192,-68,4,29.88075256,25.08651733,-11.58457947,23.47524071,95257.16406,-249,-3,-6,31,1
2185908777,13812,-49,-569,-152,-5,25,29.88075256,25.08651733,-11.58457947,23.48460388,95264.16406,-259,11,13,31,1
2185918438,13946,633,67,-236,-141,6,32.88075256,21.18650818,-22.23457336,23.47055817,95253.65625,-259,-4,-23,31,1
2185928105,13994,834,-192,-186,-65,28,33.03074646,21.48651123,-24.33457947,23.48928642,95262.78125,-259,6,-23,31,1
2185937645,13980,-59,-1980,-75,155,50,33.03074646,21.48651123,-24.33457947,23.47524071,95227.82031,-259,-7,-38,31,1
2185947573,14477,184,1051,-394,27,41,33.03074646,21.48651123,-24.33457947,23.47524071,95230.26563,-267,-2,-14,31,1
2185957234,14455,405,-557,-210,52,44,29.43075562,19.68650818,-32.13458252,23.48460388,95215.26563,-268,11,-16,31,1
2185966896,14324,197,-1374,-163,10,-30,28.38075256,18.93650818,-45.33457947,23.47055817,95209.64844,-271,2,-5,31,1
2185976449,14856,275,2212,-356,19,74,35.88075256,16.38652039,-66.93457031,23.47524071,95220.48438,-274,-10,-35,31,1
2185986112,14521,818,-3208,116,70,-34,35.88075256,16.38652039,-66.93457031,23.47524071,95205.8125,-271,13,7,31,1
2185996039,15109,-187,2831,-439,-31,80,64.83074951,3.636520386,-45.33457947,23.48928642,95208.99219,-280,-3,-56,31,1
2186005701,14946,194,-1328,-207,30,-8,47.73075867,25.08651733,-1.984573364,23.47524071,95174.03125,-281,5,15,31,1
2186015242,15398,192,957,-116,20,4,42.63075256,27.18650818,0.415420532,23.48928642,95164.97656,-283,15,-19,31,1
2186024908,15311,-128,-538,-94,50,-25,42.63075256,27.18650818,0.415420532,23.48928642,95191.875,-288,0,1,31,1
2186034831,15567,53,816,-134,41,-42,39.48075867,28.23651123,-0.484573364,23.47992325,95160.42188,-288,9,-19,31,1
2186044492,15547,196,-571,-80,106,-41,38.43075562,28.53651428,2.815414429,23.47992325,95145.75,-290,4,-4,31,1
2186054038,15692,-44,353,-138,85,-82,38.43075562,28.53651428,2.815414429,23.47992325,95175.08594,-292,5,-11,31,1
2186063700,15862,86,104,-124,114,-74,38.28074646,27.63652039,-1.38458252,23.47992325,95160.42188,-293,5,-8,31,1
2186073372,15879,114,-249,-126,149,-108,38.73075867,28.53651428,0.265426636,23.47524071,95132.46875,-296,6,-5,31,1
2186083294,16011,-13,390,-155,132,-115,37.83074951,26.43650818,0.11541748,23.47992325,95135.96875,-298,6,-14,31,1
2186092835,16063,98,-132,-134,181,-134,37.83074951,26.43650818,0.11541748,23.48928642,95135.64063,-301,8,-4,31,1
2186102502,16174,11,85,-168,177,-138,37.83074951,27.18650818,-0.63458252,23.47524071,95105.57031,-304,6,-11,31,1
2186112163,16232,23,71,-177,204,-168,36.18075562,28.53651428,0.565414429,23.47524071,95110.46094,-303,8,-9,31,1
2186121709,16297,90,65,-176,227,-182,37.53074646,28.38652039,-0.334579468,23.47992325,95099.29688,-306,6,-7,31,1
2186131632,16425,1,220,-204,235,-200,37.53074646,28.38652039,-0.334579468,23.47055817,95080.07031,-307,5,-12,31,1
2186141293,16500,62,-58,-203,260,-224,38.28074646,28.38652039,-0.63458252,23.47992325,95087.07031,-310,7,-9,31,1
2186150959,16551,66,60,-225,271,-233,38.28074646,28.38652039,-0.63458252,23.47524071,95051.78906,-310,6,-11,31,1
2186160500,16597,21,90,-238,292,-259,38.43075562,29.73651123,-0.784576416,23.47524071,95054.23438,-309,6,-12,31,1
2186170170,16637,66,0,-248,308,-269,38.43075562,29.73651123,-0.784576416,23.47524071,95046.89844,-309,6,-12,31,1
2186180098,16697,32,65,-259,329,-289,37.53074646,29.88652039,-1.684585571,23.47992325,95030.83594,-312,7,-7,31,1
2186189759,16783,30,85,-276,338,-308,37.83074951,28.08651733,-1.084579468,23.47055817,95018.94531,-314,6,-8,31,1
2186199304,16831,39,-14,-287,360,-319,37.83074951,28.08651733,-1.084579468,23.47524071,95000.44531,-315,7,-9,31,1
2186208966,16854,33,35,-306,372,-338,36.78074646,31.53651428,-2.13458252,23.47524071,94993.10938,-314,7,-7,31,1
2186218628,16936,21,40,-320,386,-349,37.53074646,29.88652039,-2.13458252,23.47992325,94986.82813,-317,7,-11,31,1
2186228555,16986,23,39,-338,402,-365,36.78074646,30.33651733,-1.084579468,23.47055817,94967.60156,-318,7,-9,31,1
2186238097,16963,25,-1,-354,413,-380,36.78074646,30.33651733,-1.084579468,23.46587563,94954.32813,-317,6,-11,31,1
2186247758,17061,6,85,-372,425,-391,37.08074951,30.33651733,-2.88458252,23.47992325,94940.375,-318,7,-8,31,1
2186257424,17132,27,3,-385,435,-407,35.28074646,29.13652039,-4.234573364,23.47055817,94943.15625,-320,7,-9,31,1
2186266973,17203,26,34,-399,445,-415,35.88075256,31.23651123,-3.334579468,23.47524071,94924.65625,-320,7,-9,31,1
2186276902,17275,-25,66,-415,452,-426,35.88075256,31.23651123,-3.334579468,23.46587563,94912.76563,-321,8,-7,31,1
2186286563,17304,2,-25,-422,460,-435,35.43075562,30.48651123,-4.534576416,23.47524071,94907.53906,-323,6,-10,31,1
2186296224,17355,-5,122,-437,457,-441,36.18075562,31.23651123,-5.284576416,23.47992325,94918.375,-323,7,-11,31,1
2186305770,17383,1,-1,-439,460,-448,35.28074646,30.78651428,-5.434585571,23.47055817,94918.71094,-324,7,-8,31,1
2186315431,17436,-16,63,-443,457,-449,35.28074646,30.78651428,-5.434585571,23.47055817,94894.25781,-326,7,-11,31,1
2186325359,17475,-23,-1,-443,453,-454,35.43075562,31.68650818,-6.63458252,23.47992325,94859.69531,-326,8,-8,31,1
2186335020,17537,-30,77,-452,443,-454,34.53074646,32.28651428,-6.934585571,23.47055817,94838.03125,-326,8,-9,31,1
2186344561,17596,17,-33,-457,435,-448,36.03074646,33.03651428,-5.734573364,23.47524071,94858.64063,-329,8,-8,31,1
2186354228,17649,-30,60,-463,422,-443,36.03074646,33.03651428,-5.734573364,23.47055817,94840.47656,-329,6,-11,31,1
2186363897,17722,-12,19,-467,413,-429,36.03074646,33.03651428,-5.734573364,23.46587563,94795.41406,-328,6,-9,31,1
2186373825,17724,-19,-39,-477,403,-427,35.28074646,32.58651733,-6.184585571,23.47055817,94791.57813,-331,8,-7,31,1
2186383366,17771,-22,87,-485,380,-412,35.28074646,32.58651733,-6.184585571,23.47992325,94776.57031,-329,7,-11,31,1
2186393027,17813,-25,20,-491,367,-400,35.13075256,33.18650818,-6.334579468,23.47055817,94759.79688,-332,8,-8,31,1
2186402693,17901,-32,-20,-511,339,-381,35.28074646,33.03651428,-8.284576416,23.47524071,94775.51563,-334,7,-8,31,1
2186412235,17970,-23,76,-541,310,-361,35.28074646,33.48651123,-8.88458252,23.47524071,94770.63281,-334,8,-12,31,1
2186422157,18025,-19,-122,-563,293,-338,35.28074646,33.48651123,-8.88458252,23.46587563,94722.07031,-337,7,-8,31,1
2186431823,18077,-35,40,-604,250,-316,35.13075256,34.38652039,-8.734573364,23.47524071,94680.17188,-337,8,-9,31,1
2186441484,18146,-47,39,-632,219,-292,33.93075562,34.08651733,-9.784576416,23.47524071,94694.84375,-338,7,-12,31,1
2186451031,18169,-22,-59,-668,181,-267,33.93075562,34.38652039,-9.484573364,23.47524071,94675.28125,-339,8,-9,31,1
2186460699,18223,-40,9,-710,144,-240,33.93075562,34.38652039,-9.484573364,23.47992325,94664.10938,-339,8,-9,31,1
2186470622,18296,-33,-88,-750,100,-213,33.93075562,35.58651733,-9.784576416,23.47524071,94643.5,-340,7,-10,31,1
2186480288,18360,-78,160,-802,53,-184,32.28074646,33.03651428,-11.13458252,23.46587563,94604.72656,-340,7,-9,31,1
2186489829,18366,-39,-156,-827,7,-160,34.08074951,34.53651428,-10.38458252,23.47055817,94578.89063,-343,7,-14,31,1
2186499496,18459,-48,57,-893,-42,-127,34.08074951,34.53651428,-10.38458252,23.47524071,94560.38281,-343,8,-9,31,1
2186509157,18518,-45,-13,-930,-94,-104,34.08074951,33.78651428,-11.43457031,23.47524071,94526.15625,-345,9,-9,31,1
2186519079,18615,-50,-92,-993,-136,-74,33.78074646,34.53651428,-11.88458252,23.47524071,94535.9375,-347,7,-12,31,1
2186528625,18669,-52,54,-1027,-194,-53,33.78074646,34.53651428,-11.88458252,23.47524071,94479.71094,-347,9,-8,31,1
2186538286,18641,-53,-107,-1083,-230,-26,32.58074951,33.48651123,-11.13458252,23.47524071,94447.92969,-347,9,-8,31,1
2186547947,18729,-69,36,-1102,-286,-7,33.03074646,34.53651428,-13.23457336,23.46119308,94403.21875,-348,9,-11,31,1
2186557502,18803,-50,-70,-1147,-325,15,32.43075562,35.58651733,-12.03457642,23.47524071,94364.8125,-352,8,-8,31,1
2186567424,18860,-49,-9,-1138,-374,29,32.43075562,35.58651733,-12.03457642,23.47055817,94331.98438,-352,8,-13,31,1
2186577091,18923,-80,49,-1197,-403,42,32.43075562,35.58651733,-12.03457642,23.47055817,94305.09375,-353,8,-11,31,1
2186586752,18994,-90,-147,-1163,-434,51,32.13075256,31.68650818,-12.78457642,23.47055817,94278.20313,-354,8,-9,31,1
2186596293,19061,-68,84,-1206,-474,55,34.68075562,33.63652039,-13.53457642,23.47524071,94264.57813,-354,8,-12,31,1
2186606221,19078,-62,-132,-1173,-489,70,34.68075562,33.63652039,-13.53457642,23.47055817,94214.64063,-356,9,-7,31,1
2186615883,19192,-95,25,-1249,-514,65,32.88075256,33.63652039,-13.08457947,23.47055817,94177.97656,-358,7,-13,31,1
2186625549,19253,-66,17,-1237,-522,73,33.03074646,33.48651123,-14.73457336,23.47524071,94139.90625,-359,9,-11,31,1
2186635090,19301,-98,-115,-1313,-533,66,33.33074951,32.28651428,-15.18457031,23.46587563,94093.8125,-360,9,-11,31,1
2186644752,19338,-58,16,-1321,-534,70,33.33074951,32.28651428,-15.18457031,23.47055817,94063.08594,-360,10,-11,31,1
2186654689,19410,-51,23,-1360,-545,63,32.88075256,32.88652039,-14.88458252,23.47524071,94029.90625,-362,10,-9,31,1
2186664349,19465,-82,-90,-1423,-534,68,33.93075562,31.68650818,-14.88458252,23.47524071,93976.125,-364,9,-9,31,1
2186673895,19513,-64,46,-1475,-539,61,33.93075562,31.68650818,-14.88458252,23.47055817,93943.30469,-365,9,-12,31,1
2186683556,19564,-79,-50,-1527,-514,60,33.18075562,32.13652039,-14.28457642,23.46587563,93883.59375,-365,8,-9,31,1
2186693218,19648,-59,88,-1582,-509,58,34.83074951,30.78651428,-15.48457336,23.47524071,93841.6875,-367,8,-11,31,1
2186703146,19715,-69,-30,-1629,-479,52,33.93075562,30.93650818,-16.08457947,23.46587563,93805.375,-369,8,-10,31,1
2186712687,19766,-95,-57,-1686,-461,52,33.93075562,30.93650818,-16.08457947,23.47524071,93765.90625,-370,7,-10,31,1
2186722348,19878,-69,79,-1739,-439,49,36.18075562,30.93650818,-14.58457947,23.46587563,93719.82813,-373,9,-10,31,1
2186732014,19919,-33,50,-1799,-407,46,35.13075256,29.43650818,-17.13458252,23.46587563,93670.9375,-372,8,-12,31,1
2186741555,19989,-65,-65,-1843,-365,45,34.38075256,29.73651123,-16.38458252,23.47524071,93653.46875,-375,8,-8,31,1
2186751482,20019,-50,23,-1886,-333,42,34.38075256,29.73651123,-16.38458252,23.47055817,93603.53906,-375,8,-8,31,1
2186761149,20073,-59,88,-1957,-307,40,35.13075256,30.48651123,-16.38458252,23.47055817,93552.21094,-374,8,-9,31,1
2186770811,20164,-40,-99,-1958,-244,44,35.88075256,29.43650818,-17.43457031,23.46587563,93504.72656,-375,9,-11,31,1
2186780357,20236,-53,187,-2055,-221,40,35.88075256,29.43650818,-17.43457031,23.46587563,93468.07031,-378,10,-9,31,1
2186790018,20299,-19,-74,-2066,-148,51,35.88075256,29.43650818,-17.43457031,23.47055817,93420.22656,-377,9,-11,31,1
2186799946,20395,-62,29,-2141,-142,52,34.38075256,27.48651123,-18.18457031,23.47524071,93377.26563,-379,7,-8,31,1
2186809606,20423,-67,221,-2175,-90,65,36.03074646,27.18650818,-19.83457947,23.46587563,93331.19531,-381,9,-10,31,1
2186819147,20471,2,-141,-2234,-42,71,34.53074646,26.13652039,-18.78457642,23.46587563,93292.08594,-382,9,-8,31,1
2186828814,20597,-61,166,-2275,-20,86,34.53074646,26.13652039,-18.78457642,23.46587563,93245.64844,-383,7,-12,31,1
2186838474,20600,-15,17,-2326,22,98,35.58074951,25.38652039,-20.28457642,23.47055817,93210.02344,-384,7,-10,31,1
2186848397,20584,-10,6,-2376,59,113,34.38075256,26.28651428,-20.13458252,23.46587563,93160.10938,-384,8,-9,31,1
2186857952,20694,-52,173,-2441,87,126,34.38075256,26.28651428,-20.13458252,23.46587563,93111.22656,-386,7,-11,31,1
2186867648,20726,31,-126,-2496,130,140,35.28074646,24.18650818,-22.08457947,23.46119308,93073.52344,-387,8,-10,31,1
2186877315,20837,-57,198,-2574,141,151,35.43075562,22.83651733,-21.93457031,23.47055817,93051.15625,-386,7,-11,31,1
2186886856,20869,10,19,-2635,170,166,35.13075256,20.88652039,-21.48457336,23.47055817,93019.38281,-389,7,-11,31,1
2186896778,20895,-23,-3,-2715,175,181,35.13075256,20.88652039,-21.48457336,23.47055817,92980.28125,-390,7,-11,31,1
2186906444,20989,5,-164,-2751,210,194,33.63075256,20.43650818,-22.98457336,23.46587563,92935.25781,-390,7,-7,31,1
2186916142,21008,24,158,-2868,192,213,34.38075256,21.18650818,-24.03457642,23.46587563,92891.26563,-393,6,-14,31,1
2186925688,21069,55,-209,-2882,215,224,34.83074951,18.78651428,-25.68457031,23.47055817,92858.07813,-392,7,-9,31,1
2186935349,21220,16,27,-2958,201,231,34.83074951,18.78651428,-25.68457031,23.46587563,92808.17188,-394,6,-12,31,1
2186945272,21194,27,58,-3048,195,239,35.28074646,17.58651733,-27.18457031,23.47524071,92763.79688,-394,8,-12,31,1
2186954938,21255,130,-247,-3124,166,232,36.33074951,14.28651428,-26.43457031,23.46587563,92712.85938,-395,7,-9,31,1
2186964486,21300,121,44,-3256,137,245,34.38075256,15.18652344,-26.58457947,23.47055817,92647.90625,-396,5,-14,31,1
2186974147,21260,88,-218,-3343,133,239,34.38075256,15.18652344,-26.58457947,23.46119308,92594.51563,-396,6,-9,31,1
2186984075,21405,62,-71,-3446,105,236,35.43075562,12.93652344,-27.03457642,23.47524071,92538.96094,-399,9,-9,31,1
2186993736,21414,125,38,-3517,62,238,35.43075562,12.93652344,-27.03457642,23.48460388,92492.14063,-398,5,-9,31,1
2187003282,21423,254,-213,-3592,81,246,35.43075562,12.93652344,-27.03457642,23.47055817,92425.51563,-399,7,-14,31,1
2187012943,21490,204,-280,-3676,92,253,35.88075256,11.28651428,-28.08457947,23.47055817,92376.63281,-400,5,-13,31,1
2187022605,21493,191,9,-3784,72,254,34.53074646,9.636520386,-27.18457031,23.47524071,92338.5625,-400,2,-18,31,1
2187032533,21543,364,-517,-3828,85,266,33.63075256,8.286514282,-28.83457947,23.47055817,92281.32813,-403,4,-11,31,1
2187042074,21598,260,-212,-3937,74,261,33.63075256,8.286514282,-28.83457947,23.46587563,92211.875,-403,4,-11,31,1
2187051735,21649,322,39,-4044,77,260,34.38075256,6.336517334,-28.53457642,23.47055817,92137.14844,-402,1,-16,31,1
2187061407,21652,381,-577,-4110,130,251,34.68075562,2.436523438,-27.03457642,23.47055817,92080.94531,-404,3,-21,31,1
2187070949,21751,305,-250,-4251,85,229,33.63075256,-0.26348877,-27.78457642,23.47055817,92007.63281,-405,2,-15,31,1
2187080877,21789,432,-61,-4401,122,229,33.63075256,-0.26348877,-27.78457642,23.46587563,91935.74219,-405,-6,-14,31,1
2187090538,21942,555,-472,-4510,167,237,35.43075562,-1.01348877,-27.03457642,23.46587563,91864.88281,-404,-1,-20,31,1
2187100199,-1585,-1352,-7333,-1532,767,1188,35.58074951,-3.563476563,-27.18457031,23.47524071,91434.42969,-1371,-40,-134,31,1
2187109745,-2262,5108,1217,1532,-622,1344,32.43075562,-8.813476563,-23.73457336,23.47055817,91702.1875,174,-884,815,31,1
2187119406,-4119,3324,-4850,-4772,-77,12,32.43075562,-8.813476563,-23.73457336,23.46587563,91923.53125,56,-57,149,63,1
2187129333,-2929,-3770,1646,-1765,497,-371,31.68075562,-9.563476563,-25.53457642,23.47055817,91812.14844,13,83,42,63,1
2187138994,-463,1739,-3629,3797,-205,-1391,32.43075562,-9.563476563,-24.03457642,23.47524071,91798.50781,76,17,64,63,1
2187148536,-4740,-3034,2200,2502,-18,-1329,33.33074951,-8.963485718,-24.93457031,23.47055817,91765.71875,12,-84,40,31,1
2187158210,-2130,3459,-1382,-617,-549,1142,33.33074951,-8.963485718,-24.93457031,23.46587563,91662.07031,69,-15,-20,31,1
2187167870,-2248,1712,-8222,-2101,-1372,1148,32.58074951,-7.463485718,-24.33457947,23.46587563,91669.39844,17,-29,2,63,1
2187177797,-1377,1097,-10309,-6612,9,434,32.43075562,-8.813476563,-24.78457642,23.47055817,91807.25781,6,-3,70,63,1
2187187338,-1485,-1261,4591,-8514,-69,-408,32.43075562,-8.813476563,-24.78457642,23.47055817,91736.39844,33,14,-68,63,1
2187196999,-1525,774,-1115,-8792,507,-680,33.33074951,-11.66348267,-22.83457947,23.46587563,91671.84375,33,2,-18,63,1
2187206665,-646,631,-636,-9798,933,-831,33.33074951,-11.66348267,-22.83457947,23.47055817,91653.32031,27,-8,19,63,1
2187216207,-4258,-583,-4868,-10323,1000,-735,34.38075256,-13.76348877,-20.13458252,23.46587563,91627.85938,29,-16,23,31,1
2187226129,-2125,37,-2862,-14168,346,-451,34.38075256,-13.76348877,-20.13458252,23.46587563,91539.89844,41,21,44,31,1
2187235795,-1304,-815,1073,-15148,70,-307,32.58074951,-19.01348877,-17.28457642,23.46587563,91696.28125,35,17,-49,31,1
2187245456,-846,-1875,654,-15827,12,-203,33.93075562,-21.11347961,-14.88458252,23.47055817,91917.21875,23,30,-21,63,1
2187255002,-3229,-439,-668,-16697,126,-274,34.83074951,-23.21348572,-8.88458252,23.46119308,91477.78906,62,21,-10,63,1
2187264670,-702,834,1200,-18253,464,-521,34.83074951,-23.21348572,-8.88458252,23.47055817,91528.70313,30,-25,-3,31,1
2187274593,-2441,-3081,-8166,-21662,579,-272,33.78074646,-25.61347961,-2.88458252,23.46119308,91443.58594,46,44,-32,31,1
2187284259,-1632,-2748,-2027,-23937,-175,228,33.78074646,-25.61347961,4.765426636,23.45651245,91437.67969,38,50,-15,31,1
2187293800,-1630,-2995,990,-24479,-847,64,34.38075256,-21.11347961,11.96542358,23.46587563,91618.08594,42,55,-51,31,1
2187303467,-1925,-2944,-2587,-23896,-872,-17,34.38075256,-21.11347961,11.96542358,23.46587563,91730.48438,40,64,-25,31,1
2187313129,-1728,-2655,-403,-24135,-1011,-20,33.78074646,-12.41348267,19.46542358,23.47992325,91757.99219,43,50,-40,31,1
2187323052,-1860,-2464,-1746,-24929,-1046,-79,33.18075562,-1.463485718,22.61541748,23.47055817,91721.73438,45,54,-45,31,1
2187332598,-1807,-2956,-1774,-25669,-1264,-221,33.18075562,-1.463485718,22.61541748,23.47055817,91675.3125,45,54,-45,31,1
2187342259,-1843,-2876,-1404,-26128,-1427,-488,32.28074646,10.83651733,20.51542664,23.46587563,91676.73438,43,63,-35,31,1
2187351921,-1765,-3121,-2844,-27481,-1439,-844,32.13075256,23.13652039,16.76542664,23.47055817,91731.50781,42,59,-51,31,1
2187361474,-1809,-3824,-3328,-29854,-1412,-1141,31.83074951,30.33651733,7.465423584,23.47055817,91738.84375,42,63,-64,31,1
2187371397,-1718,-4617,-3353,-32123,-1314,-1411,31.83074951,30.33651733,7.465423584,23.47055817,91726.625,44,77,-70,31,1
2187381063,-1901,-5212,-2865,-32740,-1223,-1620,30.63075256,34.83651733,-4.084579468,23.47992325,91677.35156,43,95,-73,31,1
2187390724,-2082,-5576,-2850,-32764,-1200,-1738,28.98075867,31.83651733,-17.28457642,23.47524071,91612.79688,47,106,-72,31,1
2187400265,-2254,-5400,-2873,-32546,-1233,-1797,29.28074646,18.33651733,-25.68457031,23.47524071,91539.49219,52,111,-59,31,1
2187409932,-2501,-5080,-2431,-32168,-1271,-1776,29.28074646,18.33651733,-25.68457031,23.47992325,91479.42969,52,105,-55,31,1
2187419593,-2943,-4885,-2255,-31079,-1159,-1684,29.28074646,18.33651733,-25.68457031,23.47055817,91416.30469,57,98,-52,31,1
2187429521,-3310,-4804,-1082,-29104,-1098,-1578,30.03074646,0.786514282,-28.23457336,23.47524071,91370.89844,66,95,-47,31,1
2187439062,-2852,-4531,-2622,-28170,-671,-1459,29.13075256,-13.76348877,-22.98457336,23.47992325,91362.14063,78,89,-46,31,1
2187448724,-6636,-2488,-4147,-28746,-54,-1381,29.13075256,-13.76348877,-22.98457336,23.47524071,90782.0625,47,90,-44,31,1
2187458397,-1102,-3341,-4698,-32561,563,-2286,32.28074646,-24.41348267,-12.63458252,23.47992325,90480.125,95,58,-108,31,1
2187468319,-2482,-6648,-4510,-32729,1610,-2822,34.83074951,-25.91348267,-0.63458252,23.48460388,90647.27344,42,114,-66,31,1
2187477865,-2888,-3489,-3185,-32701,2124,-2452,34.83074951,-25.91348267,-0.63458252,23.47992325,90719.55469,54,102,-63,31,1
2187487526,-3327,-5453,-2021,-32512,2154,-2041,35.58074951,-18.26348877,10.61541748,23.47992325,90719.55469,73,94,-90,31,1
2187497188,-3430,-3587,-2496,-31564,1696,-1245,35.58074951,-7.463485718,17.66542053,23.48460388,90723.00781,76,82,-80,31,1
2187507115,-2139,-3622,-3303,-31913,1869,-920,36.93075562,6.336517334,17.51542664,23.47524071,90742.96875,58,70,-75,31,1
2187516656,-2443,-4141,-5612,-32117,2041,-65,36.93075562,6.336517334,17.51542664,23.48928642,90069.26563,56,76,-81,31,1
2187526317,-8351,-1724,-6103,-32764,1801,332,36.63075256,18.48651123,10.46542358,23.47992325,89239.15625,139,53,-106,31,1
2187535983,-4912,-3468,-7095,-32764,1692,531,37.23075867,25.83651733,-0.034576416,23.47524071,89565.47656,98,76,-79,63,1
2187545524,-4439,-4463,-3365,-32764,1673,849,35.28074646,24.18650818,-12.18457031,23.47992325,89737.46875,93,94,-114,31,1
2187555452,-2182,-5122,-6182,-32764,1221,1230,35.28074646,24.18650818,-12.18457031,23.47992325,89471.21094,51,109,-103,31,1
2187565120,-2147,-6293,-4918,-32764,-46,1369,35.13075256,7.836517334,-19.68457031,23.47524071,88227.01563,54,134,-74,31,1
2187574782,-12941,-11665,-4815,-32764,-1424,1315,33.63075256,-10.31347656,-18.63458252,23.47992325,86982.58594,172,184,-119,31,1
2187584328,-2023,-9407,-6230,-32764,-2276,1445,33.63075256,-10.31347656,-18.63458252,23.48460388,87767.42188,52,202,-48,31,1
2187593989,-1717,-11008,-1943,-32764,-3436,857,35.43075562,-22.31347656,-7.38458252,23.47524071,88078.03906,33,205,-27,63,1
2187603917,93,-11420,-346,-32764,-3947,-127,34.08074951,-20.96348572,9.565414429,23.47992325,88203.57813,14,207,-116,31,1
2187613578,-335,-11081,-2787,-32764,-3401,-1028,34.68075562,-8.813476563,19.61541748,23.48460388,88517.17969,16,211,-86,31,1
2187623120,-712,-10257,-4392,-32764,-2301,-1739,34.68075562,-8.813476563,19.61541748,23.47992325,88997.34375,19,202,-62,31,1
2187632786,-913,-9572,-2291,-32764,-1221,-1889,34.68075562,-8.813476563,19.61541748,23.47992325,89507.85156,19,202,-62,31,1
2187642447,-1422,-7790,-4316,-32695,-133,-1534,33.33074951,14.58651733,19.76542664,23.48460388,89872.82813,32,168,-121,31,1
2187652415,-1927,-5488,-9092,-32624,801,-850,31.08074951,29.88652039,10.01542664,23.48460388,90016.96094,40,143,-151,31,1
2187661959,-2331,-5098,-8311,-32764,1269,-8,31.08074951,29.88652039,10.01542664,23.47524071,89809.75,44,109,-142,63,1
2187671620,-2586,-3286,-6033,-32755,1026,820,30.48075867,36.18650818,-3.184585571,23.47992325,89573.80469,51,76,-145,31,1
2187681286,-2418,-2238,-5275,-32764,269,1507,26.13075256,30.48651123,-18.63458252,23.47992325,89405.25781,56,57,-202,31,1
2187690828,-850,-1100,-3907,-32764,-603,1522,27.18075562,13.68652344,-29.13458252,23.47992325,89542.04688,44,39,-130,63,1
2187700489,-2557,-3094,1888,-32697,-1259,1344,27.18075562,13.68652344,-29.13458252,23.48928642,88789.28125,23,28,-24,63,1
2187710416,-1829,-2134,4878,-30677,-1584,2161,26.73075867,-10.16348267,-28.68457031,23.48460388,88302.25781,75,119,35,31,1
2187720077,-2049,-3103,4557,-29127,-2241,2322,27.18075562,-28.91348267,-16.08457947,23.48460388,88331.5625,40,27,78,31,1
2187729625,-1757,-6275,4518,-26837,-3163,2481,27.78074646,-35.66348267,1.915420532,23.47524071,88490.77344,42,53,116,31,1
2187739286,-1278,-6176,6018,-25028,-4055,2462,27.78074646,-35.66348267,1.915420532,23.48460388,88609.99219,36,109,131,31,1
2187749217,-1318,-8633,4996,-25520,-4794,2207,26.73075867,-30.26348877,16.46542358,23.48460388,88517.17969,26,137,101,31,1
2187758882,-967,-10751,8091,-25936,-5376,1671,22.53074646,-18.56347656,27.86541748,23.47992325,88059.49219,16,185,138,31,1
2187768423,-629,-12253,8942,-25157,-5367,1142,22.53074646,-18.56347656,27.86541748,23.47992325,87414.78906,19,173,98,63,1
2187778085,-1436,-15072,1987,-22430,-5898,1176,21.03074646,-3.563476563,34.46542358,23.48928642,86491.3125,28,272,161,31,1
2187787751,-1416,-15677,8264,-21389,-6163,1270,16.98075867,14.28651428,32.21542358,23.47992325,85649.52344,27,289,81,31,1
2187797292,-1749,-14639,4162,-18556,-6421,1458,13.38075256,28.98651123,26.96542358,23.48928642,85058.23438,41,292,132,31,1
2187807219,-1306,-13517,5221,-15208,-7024,1646,13.38075256,28.98651123,26.96542358,23.48460388,84896.16406,41,254,101,31,1
2187816881,-1949,-13685,4908,-12724,-6641,1538,11.43075562,40.98651123,17.81541443,23.47992325,85139.32031,47,271,86,31,1
2187826542,-1817,-12108,6275,-9512,-6227,1632,12.18075562,44.13652039,12.71542358,23.47524071,85616.82813,43,236,81,31,1
2187836089,-2419,-10595,573,-6349,-5826,1731,12.18075562,44.13652039,12.71542358,23.48460388,86033.77344,54,198,-4,31,1
2187846019,-2647,-9846,1575,-3753,-5732,1931,12.18075562,44.13652039,12.71542358,23.47524071,86322.375,55,198,86,31,1
2187855684,-2642,-10160,4836,-1855,-5652,2372,9.630752563,46.23651123,7.465423584,23.46119308,86302.38281,68,178,3,31,1
2187865345,-3115,-8857,5,-164,-5349,3115,10.98075867,45.93650818,2.815414429,23.48928642,86122.63281,67,157,44,31,1
2187874886,-2846,-8808,2542,1094,-5739,3914,10.08074951,45.78651428,2.215423584,23.47524071,85890.25,64,166,27,31,1
2187884815,-3080,-7284,-64,2068,-5972,4789,10.08074951,45.78651428,2.215423584,23.47992325,85703.22656,77,157,46,31,1
2187894475,-3212,-5723,4457,2835,-5607,5498,12.78076172,44.43650818,2.815414429,23.47055817,85576.80469,71,115,68,31,1
2187904137,-1870,-4855,5318,2926,-5258,6065,15.33074951,43.68650818,6.86541748,23.46587563,85373.22656,48,94,127,63,1
2187913683,-240,-4826,7789,3447,-4869,6606,17.58074951,40.53651428,11.21542358,23.47524071,84996.78125,20,100,129,63,1
2187923344,-772,-1034,9343,3954,-4484,7098,17.58074951,40.53651428,11.21542358,23.47524071,83703.17188,20,100,129,63,1
2187933271,-3028,-1031,11103,4047,-4171,7528,18.63075256,37.83651733,14.51542664,23.47524071,81197.19531,40,43,142,31,1
2187942933,-6014,2323,11857,3737,-3607,7768,22.83074951,32.43650818,18.56541443,23.48460388,78252.46094,112,27,176,31,1
2187952479,-2821,6547,15418,6056,-2690,8435,22.83074951,32.43650818,18.56541443,23.47524071,75775.84375,136,18,257,63,1
2187962144,-1353,3493,12324,6762,-1285,8077,22.98075867,26.88652039,22.01542664,23.48928642,73906.3125,45,-157,271,31,1
2187971805,2832,9010,19645,2831,874,7818,24.63075256,21.63652039,25.46542358,23.48460388,81284.42188,20,-205,398,31,1
2187981351,2957,16358,12025,4801,5391,6351,25.98075867,14.28651428,28.91542053,23.48460388,81047.76563,-54,-291,386,31,1
2187991274,4567,15334,11472,5471,8918,4036,25.98075867,14.28651428,28.91542053,23.48928642,81026.72656,-57,-257,444,31,1
2188000935,4076,21736,8057,7120,11323,972,30.78074646,6.48651123,26.36541748,23.47992325,82315.57813,-50,-313,198,31,1
2188010601,1295,16184,-694,6723,8727,-3210,33.18075562,-3.413482666,23.66542053,23.48928642,84111.15625,-43,-392,-74,31,1
2188020143,79,14184,-15375,7068,5424,-5469,38.28074646,-5.063476563,13.31541443,23.48928642,85199.82031,23,-287,-297,63,1
2188030065,2221,16340,9956,1831,5192,-8030,38.28074646,-5.063476563,13.31541443,23.48460388,84310.35156,9,-351,-184,31,1
2188039732,1264,12042,-7363,848,5175,-11545,40.83074951,-2.063476563,7.015426636,23.48928642,83183.72656,-39,-365,-51,31,1
2188049394,4168,5968,-18608,283,2008,-13687,40.83074951,-2.063476563,7.015426636,23.48928642,83935.42188,-3,-138,0,63,1
2188058945,3268,2755,-15067,402,2500,-14110,41.73075867,3.936523438,2.515426636,23.48928642,85253.52344,-54,-20,-87,31,1
2188068607,2786,-3913,-5673,886,3981,-14236,41.73075867,3.936523438,2.515426636,23.47524071,85763.29688,-53,-8,-223,31,1
2188078268,2437,-6671,-5167,1399,3761,-13964,43.98075867,14.43652344,-3.784576416,23.48928642,85846.75,-8,67,-328,31,1
2188088195,1391,-8624,-8475,809,2000,-12941,37.83074951,22.98651123,-7.234573364,23.4986515,85108.96875,-18,152,-309,31,1
2188097737,515,-12072,-9393,-586,188,-11479,32.13075256,35.13652039,-8.434570313,23.4986515,85580.125,10,274,-206,63,1
2188107402,1530,-7072,-16092,-772,-1087,-9760,32.13075256,35.13652039,-8.434570313,23.50333405,85319.86719,-16,158,-308,63,1
2188117063,1641,-22669,11481,-3957,-5039,-8968,27.63075256,39.03651428,-9.484573364,23.50801659,85582.04688,2,364,-76,31,1
2188126987,-1004,-15294,-4015,-2370,-2932,-5382,19.38075256,44.43650818,-9.034576416,23.50801659,86492.75,38,264,-253,31,1
2188136532,-1765,-14746,-15615,-1454,-2017,-2594,19.38075256,44.43650818,-9.034576416,23.51269722,86437.55469,44,273,-340,31,1
2188146193,-10876,-27418,-29437,-579,-1756,550,13.98075867,48.18650818,-10.68457031,23.51269722,86088.39844,170,508,-591,31,1
2188155855,-4831,-22001,-24449,-2600,-4840,6284,12.18075562,47.88652039,-9.784576416,23.52674484,86594.29688,73,464,-309,31,1
2188165408,-1220,-14033,-20016,-1576,-8013,11512,11.73075867,47.58651733,-11.58457947,23.51269722,85614.75,29,312,-180,31,1
2188175069,3594,-5249,-7188,-1610,-12210,13038,11.73075867,47.58651733,-11.58457947,23.53610802,87519.34375,-15,89,-81,63,1
2188184997,552,-5456,148,-1613,-13563,13867,21.03074646,43.08651733,-11.13458252,23.5220623,88737.60938,62,56,-183,63,1
2188194658,-9076,19,14679,-3666,-16107,13993,28.68075562,35.13652039,-7.834579468,23.53142738,88959.4375,414,-60,160,31,1
2188204199,-7999,13065,7753,-3404,-14653,12913,35.58074951,27.63652039,-0.334579468,23.52674484,87466.10156,349,-326,490,31,1
2188213866,-10451,18335,8347,-2053,-10108,8822,35.58074951,27.63652039,-0.334579468,23.5220623,86659.25781,349,-326,490,31,1
2188223788,-17184,12694,9973,194,-3520,1922,36.33074951,18.33651733,9.565414429,23.53610802,86271.47656,350,-386,582,31,1
2188233454,-15152,12501,17767,27,4947,-2802,34.83074951,13.08651733,18.41542053,23.53142738,86189.92969,589,-332,1183,63,1
2188242996,-17685,3942,18517,922,3897,-7495,37.98075867,15.18652344,14.51542664,23.5454731,86915.64063,562,-474,929,31,1
2188252657,-21613,1520,-15327,2218,5442,-10011,37.98075867,15.18652344,14.51542664,23.55015564,88589.66406,463,-134,270,31,1
2188262329,-29033,-7810,-26325,544,11154,-8861,37.98075867,15.18652344,14.51542664,23.5454731,88881.80469,556,109,-415,31,1
2188272252,-28004,-9357,-24394,-2783,6126,-6161,39.33074951,20.28651428,4.465423584,23.55951881,89107.09375,609,95,-420,63,1
2188281798,-19741,-7479,-18321,-6824,855,-3209,39.33074951,20.28651428,4.465423584,23.55015564,89158.84375,524,202,-341,63,1
2188291459,-25348,-9560,-29904,-9123,-5416,-1167,37.68075562,23.88652039,-3.334579468,23.56420135,89435.46094,509,140,-517,63,1
2188301120,-13392,-2735,-25076,-11814,-11394,-388,33.93075562,28.98651123,-10.23457336,23.56420135,89731.08594,401,151,-420,31,1
2188310666,-13313,-5121,-12313,-14321,-15185,-1770,32.58074951,28.38652039,-11.13458252,23.56420135,89415.91406,278,55,-250,63,1
2188320589,-8364,-4708,3057,-14680,-14915,-3617,32.58074951,28.38652039,-11.13458252,23.57356644,88804.71094,312,76,53,63,1
2188330251,-12729,-11610,9363,-14528,-13071,-4870,34.38075256,27.03651428,-10.98457336,23.56420135,88548.67188,216,101,91,31,1
2188339917,-11483,-16687,10522,-14136,-10221,-4610,37.08074951,28.38652039,-8.284576416,23.58292961,88447.58594,234,177,194,31,1
2188349458,-13860,-12528,14570,-13017,-8900,-3750,35.88075256,29.43650818,-7.834579468,23.58292961,88232.625,227,208,255,31,1
2188359394,-14602,-14663,17178,-11757,-5353,-3089,35.88075256,29.43650818,-7.834579468,23.58292961,88193.53906,254,212,254,31,1
2188369055,-9529,-13467,11980,-11015,-1615,-934,34.53074646,32.58651733,-8.584579468,23.58761215,88455.90625,363,201,274,31,1
2188378716,-11672,-14527,14458,-2582,542,1921,32.43075562,32.88652039,-10.23457336,23.59229469,88601.02344,259,269,257,31,1
2188388263,-12732,-17544,14988,-2782,4150,5227,32.43075562,32.13652039,-13.08457947,23.59229469,88840.4375,265,319,299,31,1
2188397924,-12164,-16049,15289,-4241,8728,8769,32.43075562,32.13652039,-13.08457947,23.61102295,89215.78125,249,275,298,63,1
2188407853,-8319,-12163,9120,-2946,10423,11949,34.53074646,28.38652039,-17.73457336,23.59697723,89190.79688,189,214,133,63,1
2188417514,-5748,-6553,5448,-2423,11738,13917,31.83074951,21.78651428,-22.38458252,23.60634041,89371.15625,137,140,93,63,1
2188427055,-5088,-2815,1080,-2022,12153,15109,31.83074951,21.78651428,-22.38458252,23.60634041,89859.83594,106,57,28,31,1
2188436721,-2701,3372,-5598,-1432,11817,15147,31.38075256,10.98651123,-31.83457947,23.61102295,89631.14844,71,-55,-200,31,1
2188446382,-3539,9146,-16076,-2731,9676,14099,25.53074646,1.836517334,-36.03457642,23.59697723,89212.78906,111,-153,-278,31,1
2188455932,-5975,14630,-13926,-2881,6341,11998,16.98075867,-8.963485718,-38.88458252,23.60634041,89327.17188,129,-253,-239,31,1
2188465857,-9454,20459,-17537,-2083,3020,8570,16.98075867,-8.963485718,-38.88458252,23.61570549,89187.46094,195,-349,-368,63,1
2188475518,-10570,17518,-16543,-2554,-1764,4076,16.98075867,-8.963485718,-38.88458252,23.60634041,89151.25781,200,-297,-293,63,1
2188485185,-10489,17658,-17399,-1109,-4067,-212,11.73075867,-11.81347656,-39.78457642,23.61570549,89373.14844,208,-305,-206,31,1
2188494726,-9437,15197,-10693,-723,-6860,-4317,8.580749512,-15.86347961,-38.88458252,23.61102295,89438.125,202,-287,-154,31,1
2188504649,-7051,12947,-4674,-614,-9136,-7976,8.580749512,-15.86347961,-38.88458252,23.60634041,89529.96875,202,-287,-154,63,1
2188514315,-4610,7253,-1077,-617,-10374,-10640,12.18075562,-18.11347961,-37.98457336,23.62038612,89779.76563,132,-221,-130,63,1
2188523976,-5857,735,2915,-584,-10388,-11991,17.43075562,-15.11347961,-35.58457947,23.61570549,90157.51563,122,-119,-73,63,1
2188533522,-4754,-5068,5244,58,-9495,-11709,26.13075256,-13.01348877,-34.68457031,23.61570549,90255.26563,131,17,59,31,1
2188543183,-5391,-7359,5993,305,-8611,-10594,26.13075256,-13.01348877,-34.68457031,23.61102295,90144.29688,102,88,54,63,1
2188553106,-6263,-10108,4559,1247,-7616,-8823,34.08074951,-6.563476563,-30.78457642,23.61570549,89864.28906,113,131,65,31,1
2188562778,-7459,-12101,8570,1778,-6732,-6527,37.83074951,-0.413482666,-26.88458252,23.61570549,89681.02344,119,169,93,31,1
2188572319,-7072,-11531,6959,2663,-5338,-3832,39.48075867,6.636520386,-21.18457031,23.61570549,89661.47656,150,211,132,31,1
2188581981,-7858,-13169,9698,3134,-4097,-1126,39.48075867,6.636520386,-21.18457031,23.62975121,89728.00781,143,208,139,31,1
2188591648,-8201,-12479,11428,3348,-1907,2034,40.68075562,11.73651123,-16.08457947,23.62038612,89584.28125,170,244,146,31,1
2188601571,-9268,-11127,10696,3315,657,4811,40.08074951,13.83651733,-14.43457031,23.62975121,89730.45313,177,226,154,31,1
2188611116,-8401,-8852,8072,3584,3280,7293,40.08074951,13.83651733,-14.43457031,23.62506866,89878.50781,203,238,205,31,1
2188620814,-7593,-4010,6855,4691,5379,8616,41.43075562,13.98651123,-13.08457947,23.61570549,89927.82031,177,162,170,31,1
2188630476,-6345,-1424,4323,5330,6357,8831,41.73075867,10.23651123,-10.53457642,23.60634041,89935.58594,146,56,80,31,1
2188640022,-4576,1783,1353,5282,7702,8702,42.18075562,4.386520386,-13.08457947,23.62506866,90042.23438,124,5,36,31,1
2188649944,-5537,1782,-1309,5182,8505,7893,42.18075562,4.386520386,-13.08457947,23.62038612,90112.09375,122,-30,2,31,1
2188659619,-6477,2731,-1884,4853,8709,6934,41.28074646,0.786514282,-20.58457947,23.62506866,90122.875,139,-41,-55,31,1
2188669279,-5070,4787,-6392,4227,8450,5791,36.33074951,-5.51348877,-26.88458252,23.62038612,90053.44531,87,-87,-88,31,1
2188678820,-6575,6067,-8456,3642,7112,4251,36.33074951,-5.51348877,-26.88458252,23.63911629,90025.70313,131,-105,-152,31,1
2188688487,-7150,5795,-10197,2750,5311,2877,36.33074951,-5.51348877,-26.88458252,23.62975121,90031.02344,143,-105,-197,31,1
2188698148,-5925,5893,-10800,1424,3385,1687,32.58074951,-5.813476563,-31.53457642,23.61570549,90084.21094,122,-104,-200,31,1
2188708071,-5438,5622,-11071,-657,1336,599,26.88075256,-5.663482666,-33.63458252,23.62038612,90082.77344,111,-99,-183,31,1
2188717617,-5441,5818,-7288,-2416,-764,-534,25.23075867,-5.813476563,-36.03457642,23.61570549,90076.875,111,-101,-131,31,1
2188727278,-4282,5090,-3139,-2831,-2570,-1842,25.23075867,-5.813476563,-36.03457642,23.61102295,90056.32031,92,-90,-96,31,1
2188737206,-3962,4815,-4015,-2303,-3958,-3089,25.38075256,-9.113479614,-36.93457031,23.62506866,90054.45313,85,-83,-96,31,1
2188746867,-3291,4147,-5363,-1922,-5137,-4166,26.13075256,-8.363479614,-36.18457031,23.62975121,90111.66406,71,-70,-106,31,1
2188756407,-2097,3008,-2734,-2325,-6184,-5073,26.13075256,-8.363479614,-36.18457031,23.63443375,90161.54688,53,-51,-64,31,1
2188766080,-1737,2319,-1585,-2710,-6683,-5838,29.73075867,-7.76348877,-34.08457947,23.63443375,90178.64844,48,-41,-54,63,1
2188775741,-1480,1825,-1228,-2945,-6891,-6513,32.13075256,-7.163482666,-30.63458252,23.62975121,90226.51563,42,-26,-27,63,1
2188785669,-1340,641,87,-3036,-6849,-7064,36.33074951,-5.51348877,-27.18457031,23.62975121,90214.29688,40,-5,0,63,1
2188795246,-802,106,1286,-3068,-6576,-7414,36.33074951,-5.51348877,-27.18457031,23.62975121,90197.19531,40,-5,0,63,1
2188804907,-466,-428,1879,-3026,-6048,-7620,37.53074646,-1.613479614,-23.88458252,23.63911629,90143,29,7,9,63,1
2188814573,-944,-2447,2973,-2894,-5358,-7590,39.33074951,2.586517334,-18.48457336,23.63443375,90137.10938,24,14,33,63,1
2188824114,-1223,-3097,3747,-2691,-4570,-7196,41.43075562,5.886520386,-15.63458252,23.63911629,90118.5625,32,56,50,31,1
2188834037,-1008,-2637,4001,-2227,-3654,-6894,41.43075562,5.886520386,-15.63458252,23.63911629,90113.67188,33,50,62,31,1
2188843703,-1193,-3302,3840,-1923,-2928,-6231,41.28074646,13.08651733,-12.18457031,23.61570549,90159.96094,38,72,59,31,1
2188853365,-2387,-5694,3739,-1361,-2137,-5413,41.43075562,16.38652039,-10.53457642,23.62975121,90128.76563,33,73,55,31,1
2188862916,-1735,-5188,2532,-661,-1593,-4256,41.43075562,16.38652039,-10.53457642,23.63911629,90089.23438,52,113,56,31,1
2188872578,-2016,-3833,5262,251,-1072,-3280,39.18075562,20.43650818,-8.434570313,23.62975121,90241.17969,47,96,54,31,1
2188882500,-2391,-4490,4176,1300,-392,-2461,37.23075867,24.33651733,-7.38458252,23.62975121,90109.21875,48,74,59,31,1
2188892166,-2087,-5023,2848,2142,178,-1495,37.23075867,24.33651733,-7.38458252,23.62506866,90205.96094,53,87,60,31,1
2188901707,-2190,-4376,3733,2620,611,-557,37.68075562,28.23651123,-7.38458252,23.62506866,90259.72656,47,98,45,31,1
2188911373,-2100,-3989,3656,2932,927,246,37.68075562,28.23651123,-7.38458252,23.62975121,90329.15625,48,76,66,31,1
2188921034,-2123,-4670,3962,3479,1595,657,35.28074646,29.13652039,-5.734573364,23.62506866,90377.02344,50,79,59,31,1
2188930958,-1592,-3436,2892,3834,2243,1495,33.93075562,28.23651123,-4.534576416,23.62975121,90392.69531,45,75,45,31,1
2188940504,-1888,-3579,3430,3970,2793,2125,33.93075562,28.23651123,-4.534576416,23.63443375,90374.15625,44,70,51,31,1
2188950165,-1253,-1973,3450,4274,3463,2565,36.93075562,28.53651428,-4.834579468,23.63443375,90454.80469,34,50,52,31,1
2188959840,-1290,-2124,3104,4553,4215,2662,36.93075562,27.48651123,-4.084579468,23.63443375,90344.82813,33,40,50,31,1
2188969381,-841,-958,2333,4787,4825,2774,36.93075562,25.83651733,-4.534576416,23.63911629,90367.82813,27,26,33,31,1
2188979303,-927,-1367,1926,4890,5339,2719,36.93075562,25.83651733,-4.534576416,23.63911629,90409.375,26,30,27,31,1
2188988969,-976,-943,1908,4938,5809,2610,37.98075867,24.33651733,-6.334579468,23.63911629,90348.28125,29,22,23,31,1
2188998631,-967,-777,1003,5086,6242,2456,39.33074951,22.98651123,-6.484573364,23.64379692,90498.36719,28,19,12,31,1
2189008171,-838,-713,899,5160,6517,2250,39.03074646,21.48651123,-9.63458252,23.63443375,90332.60938,25,16,5,31,1
2189017838,-638,49,66,5157,6699,1962,39.03074646,21.48651123,-9.63458252,23.63911629,90340.95313,23,4,-13,31,1
2189027761,-732,-71,-733,5208,6785,1584,38.58074951,20.73651123,-13.23457336,23.63911629,90348.28125,23,5,-21,31,1
2189037427,-1123,-21,-1663,5119,6649,1217,37.23075867,19.68650818,-15.33457947,23.64847946,90360.07031,31,5,-35,31,1
2189046968,-1283,48,-1746,4950,6346,873,37.23075867,19.68650818,-15.33457947,23.64379692,90385.94531,34,4,-41,31,1
2189056638,-942,206,-1885,4687,5928,523,37.23075867,20.13652039,-17.43457031,23.64379692,90371.28125,28,1,-57,31,1
2189066302,-1088,-22,-3345,4451,5498,232,35.58074951,20.73651123,-22.38458252,23.63443375,90349.71875,33,5,-74,31,1
2189076225,-1550,-36,-4037,4003,4757,23,33.78074646,24.18650818,-23.88458252,23.64379692,90346.84375,38,2,-76,31,1
2189085771,-1467,6,-3384,3521,3961,-107,33.78074646,24.18650818,-23.88458252,23.62975121,90341.375,38,2,-76,31,1
2189095431,-1296,39,-2651,3032,3148,-186,31.83074951,25.38652039,-24.33457947,23.62506866,90345.25781,37,3,-74,31,1
2189105093,-1521,280,-3593,2541,2410,-214,31.83074951,25.38652039,-24.33457947,23.62975121,90356.03906,34,3,-79,31,1
2189114638,-1784,130,-3851,1816,1656,-205,29.43075562,25.53651428,-24.48457336,23.64847946,90362.51563,35,1,-71,31,1
2189124561,-1574,147,-3206,903,811,-151,29.43075562,25.53651428,-24.48457336,23.62975121,90331.60156,42,0,-83,31,1
2189134223,-1606,301,-3641,145,111,-71,29.73075867,27.18650818,-26.13458252,23.62975121,90282.72656,38,1,-79,31,1
2189143889,-1639,228,-3436,-595,-644,-25,28.98075867,29.13652039,-25.68457031,23.63443375,90369.26563,38,0,-69,31,1
2189153430,-1485,193,-3016,-1175,-1421,30,27.93075562,28.53651428,-25.23457336,23.62038612,90329.58594,37,1,-72,31,1
2189163103,-1514,246,-3493,-1523,-2072,26,27.93075562,28.53651428,-25.23457336,23.63443375,90361.9375,35,0,-68,31,1
2189173026,-1326,209,-2799,-1923,-2808,10,28.23075867,29.13652039,-24.93457031,23.63443375,90374.15625,35,2,-67,31,1
2189182687,-1044,151,-2318,-2037,-3485,-50,29.28074646,28.08651733,-25.38458252,23.62038612,90412.67188,34,0,-69,31,1
2189192233,-1085,206,-2873,-2249,-4056,-135,30.63075256,27.48651123,-24.03457642,23.63443375,90379.03906,28,1,-64,63,1
2189201895,-868,116,-1836,-2476,-4364,-194,30.63075256,27.48651123,-24.03457642,23.62038612,90373.57031,26,0,-48,31,1
2189211824,-807,140,-1696,-2656,-4749,-322,31.83074951,26.43650818,-23.58457947,23.62506866,90352.58594,26,2,-51,31,1
2189221485,-836,208,-1615,-3019,-5180,-470,33.18075562,26.28651428,-22.23457336,23.62975121,90380.47656,24,1,-47,63,1
2189231026,-538,244,-946,-3341,-5502,-679,33.18075562,26.28651428,-22.23457336,23.61570549,90353.01563,20,0,-30,31,1
2189240692,-542,182,-1182,-3522,-5656,-916,33.93075562,24.78651428,-20.43457031,23.61102295,90347.11719,20,2,-30,31,1
2189250354,-533,281,-509,-3711,-5789,-1173,35.28074646,22.98651123,-19.53457642,23.62506866,90337.92188,19,1,-20,63,1
2189260288,-361,247,-18,-3882,-5852,-1482,36.18075562,23.88652039,-15.63458252,23.62038612,90380.90625,16,0,-12,31,1
2189269828,-464,-34,212,-3966,-5777,-1777,36.18075562,23.88652039,-15.63458252,23.60634041,90382.76563,17,4,-3,31,1
2189279489,-390,-110,871,-3999,-5619,-1989,38.43075562,23.88652039,-12.78457642,23.59697723,90317.21094,16,9,6,31,1
2189289155,-185,61,1069,-3987,-5406,-2261,37.83074951,24.18650818,-11.88458252,23.59697723,90263.45313,12,4,7,31,1
2189298696,-196,-268,1132,-3934,-5112,-2480,36.33074951,25.38652039,-9.63458252,23.60634041,90338.78125,13,8,12,31,1
2189308619,-310,-434,1699,-3940,-4757,-2645,36.33074951,25.38652039,-9.63458252,23.60165787,90325.55469,14,12,22,31,1
2189318285,-464,-1252,1926,-3891,-4340,-2715,36.33074951,25.38652039,-9.63458252,23.60165787,90376.86719,16,26,21,31,1
2189327946,-514,-1401,1437,-3781,-3866,-2615,36.18075562,26.73651123,-8.434570313,23.61570549,90353.01563,17,32,24,31,1
2189337492,-641,-1454,2290,-3731,-3467,-2471,35.13075256,26.73651123,-6.334579468,23.60165787,90235.14063,19,31,29,31,1
2189347153,-550,-830,2311,-3624,-3023,-2402,35.13075256,26.73651123,-6.334579468,23.61102295,90366.67188,19,20,30,31,1
2189356815,-753,-1332,2212,-3482,-2513,-2376,36.33074951,29.58651733,-5.434585571,23.60165787,90328,22,29,38,31,1
2189366749,-754,-2096,2328,-3356,-2080,-2180,33.93075562,30.93650818,-5.88458252,23.60634041,90377.875,22,41,24,31,1
2189376290,-881,-1238,2125,-3155,-1620,-1934,33.03074646,32.58651733,-4.984573364,23.60634041,90377.875,24,33,30,31,1
2189385952,-882,-1790,1936,-2981,-1176,-1765,33.03074646,32.58651733,-4.984573364,23.60634041,90343.66406,24,33,30,31,1
2189395617,-952,-1798,2149,-2847,-802,-1504,32.13075256,33.18650818,-5.284576416,23.61102295,90303.13281,24,39,29,31,1
2189405540,-853,-1763,1374,-2639,-393,-1218,30.93075562,34.08651733,-8.13458252,23.60634041,90311.89844,27,38,25,31,1
2189415086,-972,-1625,1724,-2506,-77,-976,30.93075562,34.08651733,-8.13458252,23.61570549,90311.46875,22,37,22,31,1
2189424747,-1009,-1746,1584,-2302,261,-697,31.68075562,34.38652039,-8.13458252,23.60165787,90310.89063,24,36,24,31,1
2189434408,-931,-1489,1285,-2125,574,-437,29.73075867,34.53651428,-8.584579468,23.59697723,90304.99219,26,35,20,31,1
2189443955,-895,-1673,1608,-1991,835,-179,29.73075867,36.18650818,-11.88458252,23.60165787,90320.66406,24,34,23,31,1
2189453877,-770,-1331,1651,-1828,1098,82,29.73075867,36.18650818,-11.88458252,23.60634041,90321.67188,23,37,15,31,1
2189463549,-762,-1558,1006,-1740,1368,312,29.13075256,36.33651733,-11.58457947,23.61570549,90318.80469,21,31,15,31,1
2189473211,-759,-1519,1331,-1582,1559,561,29.13075256,35.88652039,-14.88458252,23.61570549,90301.69531,21,32,13,31,1
2189482752,-665,-1178,1263,-1394,1672,797,27.63075256,34.38652039,-15.63458252,23.60634041,90319.22656,20,32,15,31,1
2189492419,-827,-1321,1266,-1255,1836,919,27.63075256,34.38652039,-15.63458252,23.60634041,90321.67188,20,29,14,31,1
2189502341,-704,-1271,1119,-1081,1993,1192,28.98075867,33.48651123,-15.18457031,23.61102295,90354.45313,20,28,14,31,1
2189512002,-733,-1515,1000,-926,2144,1448,28.38075256,33.63652039,-17.88458252,23.60634041,90363.21875,20,33,9,31,1
2189521548,-660,-1357,1220,-758,2266,1728,28.38075256,33.63652039,-17.88458252,23.61102295,90376.44531,20,31,11,31,1
2189531208,-611,-961,1311,-591,2428,1959,28.38075256,33.63652039,-17.88458252,23.60165787,90384.20313,18,23,12,31,1
2189540874,-577,-1208,1025,-432,2641,2139,30.03074646,31.08651733,-21.33457947,23.60634041,90399.875,18,26,11,31,1
2189550797,-500,-1025,709,-338,2738,2357,28.68075562,31.23651123,-21.48457336,23.61102295,90378.89063,16,23,3,31,1
2189560346,-496,-1192,267,-270,2812,2536,28.68075562,31.23651123,-21.48457336,23.60165787,90384.20313,20,27,-2,31,1
2189570011,-443,-946,411,-270,2808,2730,29.88075256,29.43650818,-22.23457336,23.59697723,90370.97656,16,24,-1,31,1
2189579671,-499,-701,291,-257,2842,2868,29.73075867,27.63652039,-23.13458252,23.59697723,90407.625,17,19,-2,31,1
2189589218,-351,-537,455,-248,2858,2968,28.98075867,27.18650818,-24.93457031,23.60634041,90394.98438,14,16,-2,31,1
2189598878,-432,-532,-77,-237,2845,3048,28.98075867,27.18650818,-24.93457031,23.60634041,90380.32031,15,16,-10,31,1
2189608801,-450,-574,-193,-250,2804,3130,29.13075256,24.33651733,-27.78457642,23.59697723,90378.30469,16,15,-10,31,1
2189618467,-390,-259,95,-311,2729,3207,28.53074646,22.23651123,-28.68457031,23.60634041,90348.55469,15,11,-7,31,1
2189628009,-299,-260,11,-373,2674,3240,26.28074646,21.78651428,-28.98457336,23.60165787,90374.42969,13,8,-13,31,1
2189637670,-342,-27,-270,-400,2616,3258,26.28074646,21.78651428,-28.98457336,23.61102295,90395.99219,14,6,-12,31,1
2189647597,-376,65,-90,-440,2525,3241,28.98075867,19.53651428,-30.78457642,23.61570549,90401.89063,14,3,-12,31,1
2189657259,-263,196,-120,-482,2437,3207,29.28074646,18.03651428,-31.53457642,23.60634041,90404.75781,12,1,-15,31,1
2189666810,-431,375,-484,-535,2353,3140,29.28074646,18.03651428,-31.53457642,23.61102295,90408.21094,12,1,-15,31,1
2189676471,-345,396,-300,-593,2219,3049,27.93075562,16.68652344,-34.98457336,23.61102295,90405.76563,15,0,-19,31,1
2189686394,-398,543,-172,-605,2109,2940,26.73075867,13.83651733,-34.83457947,23.60634041,90419.42188,13,0,-14,31,1
2189696060,-371,611,-399,-624,2021,2810,26.13075256,12.93652344,-36.93457031,23.60634041,90419.42188,13,-3,-18,31,1
2189705601,-403,951,-584,-638,1913,2653,26.13075256,12.93652344,-36.93457031,23.60165787,90418.41406,13,-4,-16,31,1
2189715267,-410,666,-246,-705,1745,2449,24.48075867,11.88652039,-36.33457947,23.60634041,90419.42188,15,-11,-21,31,1
2189724929,-464,882,-664,-680,1629,2268,25.23075867,9.186523438,-37.83457947,23.61102295,90420.42969,13,-8,-21,31,1
2189734853,-427,869,-285,-597,1487,2055,25.23075867,9.186523438,-37.83457947,23.60634041,90421.86719,15,-9,-16,31,1
2189744399,-351,798,-263,-521,1372,1842,25.23075867,9.186523438,-37.83457947,23.60165787,90420.85938,13,-9,-19,31,1
2189754060,-335,790,-521,-428,1279,1642,23.13075256,5.886520386,-38.28457642,23.61102295,90417.98438,13,-8,-17,31,1
2189763771,-385,849,-237,-324,1217,1447,22.08074951,5.886520386,-39.03457642,23.60634041,90421.86719,11,-5,-14,31,1
2189773312,-422,881,-343,-198,1129,1336,22.23075867,4.98651123,-39.63458252,23.60165787,90425.74219,14,-11,-18,31,1
2189783234,-422,859,-464,-52,1000,1103,22.23075867,4.98651123,-39.63458252,23.60634041,90412.09375,15,-8,-16,31,1
2189792900,-479,957,-403,160,898,857,22.53074646,4.98651123,-40.68457031,23.60634041,90409.64844,15,-11,-17,31,1
2189802562,-449,934,-512,334,790,605,21.63075256,3.936523438,-39.78457642,23.59697723,90410.07031,13,-11,-16,31,1
2189812103,-424,830,-370,465,687,365,19.98075867,4.23651123,-41.13458252,23.60634041,90414.53125,14,-10,-16,31,1
2189821768,-430,814,-503,547,594,153,19.98075867,4.23651123,-41.13458252,23.61102295,90405.76563,14,-8,-19,31,1
2189831691,-442,773,-287,580,477,-55,21.63075256,3.936523438,-42.03457642,23.59697723,90402.74219,15,-7,-17,31,1
2189841357,-481,772,-431,605,374,-256,18.63075256,5.136520386,-42.33457947,23.61102295,90403.32813,14,-7,-18,31,1
2189850898,-477,731,-499,607,266,-450,18.78074646,6.186523438,-42.93457031,23.59697723,90412.51563,14,-7,-20,31,1
2189860568,-465,657,-349,585,154,-627,18.78074646,6.186523438,-42.93457031,23.60165787,90411.07813,15,-6,-17,31,1
2189870231,-464,623,-372,553,58,-783,19.23075867,5.286514282,-42.18457031,23.60165787,90408.64063,13,-4,-17,31,1
2189880154,-421,556,-441,502,-37,-930,17.73075867,6.936523438,-42.18457031,23.58761215,90412.9375,11,-2,-18,31,1
2189889700,-415,539,-339,440,-129,-1057,17.73075867,6.936523438,-42.18457031,23.59697723,90422.28906,12,-1,-17,31,1
2189899361,-398,502,-341,390,-218,-1184,18.48075867,7.23651123,-41.88458252,23.58761215,90415.38281,14,-1,-16,31,1
2189909022,-379,480,-307,365,-298,-1307,18.63075256,7.836517334,-42.33457947,23.57824707,90406.03906,13,-1,-14,31,1
2189918568,-351,407,-232,362,-367,-1416,19.23075867,7.98651123,-42.48457336,23.58761215,90415.38281,13,0,-15,31,1
2189928490,-363,418,-250,353,-437,-1520,19.23075867,7.98651123,-42.48457336,23.58761215,90417.82813,12,0,-14,31,1
2189938152,-392,483,-266,346,-501,-1630,19.53074646,7.98651123,-42.48457336,23.59229469,90416.39063,12,-1,-13,31,1
2189947818,-361,429,-205,334,-568,-1745,19.53074646,7.98651123,-42.48457336,23.57824707,90406.03906,13,0,-14,31,1
2189957360,-421,434,-296,320,-630,-1853,17.88075256,9.036514282,-41.28457642,23.57824707,90408.47656,14,-1,-13,31,1
2189967035,-398,373,-287,297,-705,-1957,17.88075256,9.036514282,-41.28457642,23.59697723,90395.40625,14,-1,-13,31,1
2189976957,-399,354,-259,269,-782,-2050,18.78074646,10.83651733,-42.18457031,23.59229469,90384.625,13,-1,-15,31,1
2189986619,-442,310,-379,245,-848,-2135,18.78074646,11.88652039,-40.68457031,23.59697723,90366.08594,12,1,-17,31,1
2189996164,-490,286,-128,199,-923,-2216,18.18075562,12.33651733,-40.68457031,23.60165787,90357.32031,13,0,-13,31,1
2190005826,-456,213,-217,177,-978,-2291,18.18075562,12.33651733,-40.68457031,23.60165787,90352.42969,16,1,-14,31,1
2190015492,-595,238,-305,153,-1031,-2358,20.13075256,13.23651123,-39.78457642,23.59229469,90355.30469,15,1,-15,31,1
2190025415,-607,169,-65,123,-1096,-2426,20.73075867,13.53651428,-40.68457031,23.58761215,90342.07813,17,1,-11,31,1
2190034956,-525,103,-109,125,-1110,-2480,20.73075867,13.53651428,-40.68457031,23.59697723,90331.875,19,1,-15,31,1
2190044622,-529,54,-99,107,-1150,-2520,20.73075867,15.78651428,-39.18457031,23.59229469,90323.53906,16,3,-11,31,1
2190054283,-542,-26,7,98,-1169,-2536,21.78074646,15.03651428,-40.68457031,23.59697723,90322.10156,16,3,-11,31,1
2190063837,-558,-30,-117,70,-1198,-2557,20.73075867,15.33651733,-39.93457031,23.59229469,90333.3125,17,5,-12,31,1
2190073760,-674,-82,-22,15,-1208,-2571,20.73075867,15.33651733,-39.93457031,23.58761215,90329.85938,19,6,-9,31,1
2190083421,-793,-196,-166,-46,-1214,-2569,20.13075256,17.43650818,-38.28457642,23.59697723,90322.10156,20,9,-12,31,1
2190093087,-824,-214,205,-94,-1230,-2552,21.48075867,19.53651428,-38.88458252,23.59697723,90317.21094,23,8,-9,31,1
2190102628,-828,-351,284,-93,-1200,-2516,20.73075867,19.08651733,-38.13458252,23.59697723,90312.32813,22,11,-5,31,1
2190112551,-721,-337,87,-87,-1169,-2462,20.73075867,19.08651733,-38.13458252,23.59229469,90306.42969,22,10,-5,31,1
2190122217,-635,-389,310,-123,-1131,-2414,21.03074646,20.73651123,-37.83457947,23.59697723,90309.88281,18,12,-2,31,1
2190131878,-650,-640,-10,-171,-1082,-2346,20.73075867,21.03651428,-37.38458252,23.60165787,90296.22656,18,15,-9,31,1
2190141424,-764,-789,5,-226,-1089,-2226,20.58074951,22.83651733,-37.23457336,23.58292961,90311.74219,20,19,-9,31,1
2190151086,-863,-920,213,-239,-1093,-2080,20.58074951,22.83651733,-37.23457336,23.59697723,90304.99219,22,23,-4,31,1
2190161016,-932,-915,246,-214,-1077,-1904,20.58074951,22.83651733,-37.23457336,23.59697723,90302.55469,23,23,-5,31,1
2190170681,-806,-704,471,-241,-1013,-1749,21.33074951,23.58651733,-36.93457031,23.59229469,90316.20313,21,19,0,31,1
2190180222,-803,-825,473,-246,-915,-1616,21.33074951,23.58651733,-36.93457031,23.58761215,90283.42969,21,20,0,31,1
2190189884,-773,-954,346,-255,-834,-1466,19.53074646,22.23651123,-36.33457947,23.59697723,90297.66406,22,22,-3,31,1
2190199550,-739,-1121,171,-252,-749,-1296,20.28074646,23.43650818,-36.63458252,23.59229469,90325.97656,20,25,-3,31,1
2190209474,-581,-973,431,-258,-712,-1104,19.83074951,23.88652039,-36.18457031,23.59229469,90313.76563,18,23,-2,31,1
2190219020,-550,-729,506,-241,-643,-943,19.83074951,23.88652039,-36.18457031,23.59697723,90319.65625,17,19,0,31,1
2190228681,-525,-703,721,-232,-545,-808,21.03074646,24.48651123,-35.58457947,23.60165787,90293.78125,17,18,5,31,1
2190238342,-475,-917,311,-226,-455,-673,21.03074646,25.68650818,-35.28457642,23.58761215,90300.53906,15,22,-4,31,1
2190247889,-501,-989,209,-239,-430,-504,20.28074646,24.93650818,-35.58457947,23.59697723,90304.99219,16,22,-4,31,1
2190257812,-539,-791,557,-229,-346,-357,20.28074646,24.93650818,-35.58457947,23.59229469,90269.77344,16,22,-4,31,1
2190267484,-605,-782,903,-215,-235,-220,21.63075256,23.88652039,-34.98457336,23.60165787,90286.45313,17,18,1,31,1
2190277145,-680,-992,523,-151,-79,-64,21.03074646,24.48651123,-34.83457947,23.60165787,90288.89844,18,19,6,31,1
2190286686,-713,-1040,479,-137,3,126,21.33074951,24.78651428,-36.93457031,23.59697723,90304.99219,18,24,1,31,1
2190296353,-614,-855,652,-104,77,319,21.33074951,24.78651428,-36.93457031,23.60165787,90308.44531,19,23,0,31,1
2190306276,-645,-869,475,-67,199,467,20.73075867,24.93650818,-35.28457642,23.59697723,90297.66406,18,20,0,31,1
2190315937,-597,-812,511,-56,246,622,20.73075867,25.68650818,-35.58457947,23.60165787,90286.45313,19,21,1,31,1
2190325483,-594,-806,459,-28,364,769,21.48075867,24.48651123,-36.33457947,23.60634041,90297.23438,17,19,0,31,1
2190335144,-646,-991,169,3,401,842,21.48075867,24.48651123,-36.33457947,23.61102295,90320.23438,17,20,-2,31,1
2190344810,-647,-931,345,28,439,1020,22.38075256,24.33651733,-34.38458252,23.59697723,90322.10156,17,22,-5,31,1
2190354733,-612,-862,367,59,482,1201,20.58074951,22.83651733,-36.18457031,23.59697723,90329.42969,17,21,-2,31,1
2190364280,-643,-913,446,86,559,1354,20.58074951,22.83651733,-36.18457031,23.60634041,90333.89063,18,21,-2,31,1
2190373947,-579,-789,491,130,637,1519,20.58074951,22.83651733,-36.18457031,23.60634041,90321.67188,18,19,0,31,1
2190383608,-557,-745,464,156,739,1645,21.63075256,23.58651733,-36.18457031,23.59229469,90321.09375,17,19,-2,31,1
2190393154,-481,-508,537,178,827,1756,20.13075256,22.83651733,-34.68457031,23.61570549,90335.90625,15,16,0,31,1
2190403076,-415,-429,679,208,933,1840,20.13075256,22.83651733,-34.68457031,23.60165787,90320.66406,14,13,2,31,1
2190412738,-342,-482,397,244,1053,1899,19.53074646,22.53651428,-36.33457947,23.61570549,90333.46094,12,13,0,31,1
2190422404,-350,-432,317,260,1129,1959,21.33074951,22.08651733,-36.48457336,23.59697723,90322.10156,13,14,-4,31,1
2190431945,-359,-306,509,255,1206,2013,19.53074646,19.53651428,-36.33457947,23.60634041,90326.5625,13,11,0,31,1
2190441607,-402,-324,295,256,1300,2050,19.53074646,19.53651428,-36.33457947,23.59697723,90319.65625,13,11,-3,31,1
2190451534,-446,-334,233,248,1357,2095,21.48075867,20.28651428,-37.83457947,23.60634041,90316.78906,14,11,-4,31,1
2190461204,-461,-309,295,241,1409,2136,20.28074646,20.73651123,-38.88458252,23.61102295,90332.45313,14,10,-2,31,1
2190470750,-444,-299,230,243,1466,2168,20.58074951,19.68650818,-37.98457336,23.61102295,90332.45313,15,10,-3,31,1
2190480412,-407,-228,157,217,1503,2204,20.58074951,19.68650818,-37.98457336,23.60165787,90328,14,9,-6,31,1
2190490074,-391,-99,245,182,1538,2217,20.58074951,18.93650818,-39.03457642,23.61102295,90308.01563,13,6,-5,31,1
2190500001,-379,-51,183,144,1577,2210,20.88075256,18.93650818,-38.73457336,23.60634041,90316.78906,14,6,-6,31,1
2190509542,-433,-62,83,114,1608,2197,20.88075256,18.93650818,-38.73457336,23.59697723,90322.10156,14,6,-8,31,1
2190519208,-417,-39,30,84,1619,2188,21.03074646,18.33651733,-41.13458252,23.61102295,90315.35156,13,5,-9,31,1
2190528869,-386,3,63,25,1599,2173,18.63075256,16.68652344,-38.28457642,23.62506866,90306.15625,13,4,-11,31,1
2190538411,-395,105,-243,-2,1592,2147,17.73075867,15.33651733,-38.88458252,23.61102295,90303.13281,14,3,-12,31,1
2190548338,-372,117,-16,-62,1552,2107,17.73075867,15.33651733,-38.88458252,23.61570549,90311.46875,14,3,-12,31,1
2190558008,-354,174,45,-98,1529,2058,17.13075256,16.68652344,-39.78457642,23.61102295,90310.46094,12,2,-9,31,1
2190567672,-402,260,-205,-114,1521,1996,17.13075256,16.98651123,-41.28457642,23.60634041,90319.22656,13,2,-13,31,1
2190577213,-393,273,55,-169,1485,1923,17.13075256,16.98651123,-41.28457642,23.60634041,90326.5625,12,2,-9,31,1
2190587136,-404,326,-87,-195,1466,1841,17.13075256,16.98651123,-41.28457642,23.60634041,90319.22656,14,0,-10,31,1
2190596802,-397,346,-182,-220,1443,1754,17.58074951,14.43652344,-40.53457642,23.60634041,90324.11719,14,0,-13,31,1
2190606463,-403,365,-31,-250,1425,1710,14.73075867,13.83651733,-41.88458252,23.61102295,90332.45313,13,0,-9,31,1
2190616004,-438,415,-233,-271,1389,1569,15.48075867,12.33651733,-41.88458252,23.61570549,90333.46094,13,0,-13,31,1
2190625670,-416,437,-175,-307,1339,1518,15.48075867,12.33651733,-41.88458252,23.61102295,90327.57031,13,0,-12,31,1
2190635593,-419,451,-79,-328,1303,1413,16.38075256,10.98651123,-43.08457947,23.60634041,90331.44531,15,0,-12,31,1
2190645259,-376,439,-148,-349,1251,1304,13.83074951,12.93652344,-42.78457642,23.60634041,90329.00781,13,0,-15,31,1
2190654800,-344,425,-80,-380,1202,1200,13.83074951,12.93652344,-42.78457642,23.61102295,90327.57031,12,0,-11,31,1
2190664466,-359,447,-271,-388,1168,1094,13.83074951,12.48651123,-44.58457947,23.61102295,90325.125,13,0,-14,31,1
2190674132,-360,416,-116,-416,1118,990,13.08074951,12.18652344,-43.08457947,23.60165787,90335.32813,12,-1,-13,31,1
2190684055,-403,432,-138,-435,1071,888,13.08074951,9.48651123,-43.83457947,23.61102295,90332.45313,12,0,-13,31,1
2190693601,-418,434,-281,-447,1028,784,13.08074951,9.48651123,-43.83457947,23.59229469,90328.42188,12,0,-14,31,1
2190703262,-355,453,-136,-452,963,699,11.88075256,10.83651733,-43.98457336,23.60165787,90323.10938,27,4,-17,31,1
2190712924,-398,425,-155,-464,919,602,11.43075562,9.786514282,-44.13458252,23.61102295,90330.01563,13,-3,-17,31,1
2190722470,-371,447,-303,-474,875,502,10.83074951,7.98651123,-45.48457336,23.60165787,90330.4375,13,-2,-14,31,1
2190732429,-360,394,-154,-495,818,405,10.83074951,7.98651123,-45.48457336,23.60634041,90326.5625,12,-1,-13,31,1
2190742089,-361,391,-197,-513,767,309,10.98075867,9.036514282,-45.33457947,23.60634041,90331.44531,13,-1,-12,31,1
2190751756,-357,376,-292,-527,718,217,9.480758667,7.086517334,-44.13458252,23.60165787,90325.55469,13,0,-15,31,1
2190761306,-343,339,-160,-550,660,131,7.680755615,7.536514282,-44.13458252,23.61102295,90327.57031,12,0,-13,31,1
2190770970,-330,324,-201,-554,610,48,7.680755615,7.536514282,-44.13458252,23.59697723,90324.54688,13,0,-13,31,1
2190780929,-340,328,-190,-558,569,-28,7.230758667,7.086517334,-44.58457947,23.60165787,90325.55469,12,1,-13,31,1
2190790590,-333,325,-127,-563,529,-108,7.230758667,7.086517334,-44.58457947,23.59229469,90323.53906,12,0,-12,31,1
2190800135,-323,317,-149,-558,496,-186,7.380752563,7.686523438,-44.73457336,23.59229469,90318.64844,13,0,-13,31,1
2190809797,-341,337,-150,-558,464,-264,7.380752563,7.686523438,-44.73457336,23.59229469,90321.09375,13,0,-12,31,1
2190819464,-339,342,-122,-567,432,-347,7.080749512,6.186523438,-45.78457642,23.59697723,90322.10156,12,0,-13,31,1
2190829387,-337,323,-127,-572,407,-431,9.180755615,5.586517334,-46.08457947,23.59697723,90319.65625,13,1,-13,31,1
2190838928,-348,308,-81,-574,385,-509,9.180755615,5.586517334,-46.08457947,23.60165787,90325.55469,13,1,-13,31,1
2190848594,-347,298,-90,-574,368,-586,6.330749512,4.98651123,-46.23457336,23.59229469,90316.20313,12,1,-11,31,1
2190858255,-345,265,-74,-571,356,-659,6.180755615,4.836517334,-47.88458252,23.60165787,90315.78125,12,0,-11,31,1
2190867807,-331,248,-49,-570,345,-726,6.030761719,3.786514282,-45.03457642,23.59229469,90316.20313,13,1,-10,31,1
2190877468,-344,266,-86,-568,334,-791,6.030761719,3.786514282,-45.03457642,23.59697723,90304.99219,12,0,-10,31,1
2190887391,-344,265,-84,-571,328,-859,5.430755615,2.436523438,-45.33457947,23.59697723,90309.88281,12,1,-11,31,1
2190897057,-336,248,-82,-576,316,-926,4.980758667,2.886520386,-46.08457947,23.59697723,90307.4375,13,1,-12,31,1
2190906598,-325,227,-83,-585,302,-958,3.780761719,1.836517334,-45.48457336,23.60634041,90309.45313,13,1,-11,31,1
2190916259,-317,205,-70,-594,288,-1019,3.780761719,1.836517334,-45.48457336,23.60634041,90314.34375,12,0,-11,31,1
2190926187,-318,184,-62,-600,280,-1072,4.830749512,1.836517334,-45.48457336,23.59697723,90312.32813,13,0,-10,31,1
2190935848,-322,127,-51,-605,274,-1119,6.330749512,3.48651123,-45.78457642,23.59229469,90303.98438,11,3,-10,31,1
2190945394,-314,119,-59,-600,276,-1156,3.030761719,1.836517334,-45.78457642,23.59229469,90299.10156,12,3,-11,31,1
2190955055,-317,108,-45,-598,275,-1193,3.030761719,1.836517334,-45.78457642,23.60165787,90306,11,2,-11,31,1
2190964986,-307,100,-33,-620,272,-1232,3.030761719,3.036514282,-45.03457642,23.60634041,90311.89844,13,3,-12,31,1
2190974651,-308,85,-20,-635,278,-1265,4.080749512,1.836517334,-45.78457642,23.61102295,90308.01563,12,3,-9,31,1
2190984192,-309,74,-60,-660,285,-1292,4.080749512,1.836517334,-45.78457642,23.61102295,90305.57813,12,3,-10,31,1
2191022988,-292,-31,37,-716,308,-1354,3.180755615,1.23651123,-46.38458252,23.60165787,90306,11,6,-9,31,1
2191032649,-312,-45,8,-718,321,-1356,3.180755615,1.23651123,-46.38458252,23.60634041,90309.45313,12,4,-10,31,1
2191042310,-288,-79,-25,-717,338,-1356,3.180755615,-0.713485718,-46.08457947,23.60634041,90304.57031,12,7,-9,31,1
2191051857,-274,-99,44,-719,352,-1344,2.730758667,-1.01348877,-45.63458252,23.61102295,90312.90625,10,6,-10,31,1
2191061779,-309,-110,24,-723,365,-1333,2.730758667,-1.01348877,-45.63458252,23.60634041,90307.00781,11,7,-9,31,1
2191071451,-295,-137,39,-736,383,-1315,2.280761719,-0.413482666,-43.98457336,23.62038612,90302.70313,12,7,-9,31,1
2191081113,-280,-159,9,-752,402,-1291,2.730758667,-2.51348877,-45.63458252,23.59697723,90295.21875,10,7,-8,31,1
2191090653,-328,-188,56,-765,420,-1262,2.280761719,-1.613479614,-45.78457642,23.60634041,90302.125,12,8,-10,31,1
2191100320,-273,-200,98,-774,446,-1226,2.280761719,-1.613479614,-45.78457642,23.60165787,90303.5625,11,9,-7,31,1
2191110244,-308,-214,56,-768,479,-1189,2.730758667,-2.51348877,-44.88458252,23.60634041,90297.23438,12,9,-8,31,1
2191119904,-279,-214,43,-770,504,-1148,2.280761719,-2.363479614,-45.78457642,23.59697723,90292.77344,13,8,-8,31,1
2191129450,-316,-246,61,-781,524,-1105,3.180755615,-3.713485718,-45.63458252,23.60165787,90296.22656,11,9,-8,31,1
2191139112,-256,-249,66,-780,548,-1057,3.180755615,-3.713485718,-45.63458252,23.61570549,90294.36719,11,9,-8,31,1
2191148780,-290,-278,82,-784,573,-1008,1.830749512,-5.51348877,-45.78457642,23.61102295,90298.24219,9,12,-8,31,1
2191158702,-329,-316,122,-787,603,-951,2.580749512,-5.063476563,-45.48457336,23.60634041,90302.125,12,9,-7,31,1
2191168250,-296,-320,148,-784,619,-887,2.580749512,-5.063476563,-45.48457336,23.61102295,90295.80469,12,10,-6,31,1
2191177917,-291,-341,158,-782,655,-819,1.830749512,-6.563476563,-45.03457642,23.60634041,90287.46094,11,11,-5,31,1
2191187578,-340,-381,140,-779,696,-785,0.780761719,-7.76348877,-45.03457642,23.61570549,90287.03125,10,12,-8,31,1
2191197124,-291,-366,112,-780,730,-708,0.930755615,-6.863479614,-44.88458252,23.61102295,90281.14063,12,11,-7,31,1
2191207047,-319,-380,124,-783,761,-631,0.930755615,-6.863479614,-44.88458252,23.60634041,90285.01563,13,12,-6,31,1
2191216708,-323,-392,101,-780,795,-554,0.930755615,-6.863479614,-44.88458252,23.60165787,90284.00781,12,11,-6,31,1
2191226374,-279,-384,41,-780,825,-473,-0.119247437,-9.863479614,-43.83457947,23.60165787,90281.57031,10,13,-8,31,1
2191235916,-274,-389,-70,-786,836,-392,-1.919250488,-9.713485718,-44.73457336,23.61102295,90290.91406,11,13,-12,31,1
2191245576,-289,-399,-82,-796,824,-310,-1.919250488,-9.713485718,-44.73457336,23.61102295,90290.91406,10,12,-12,31,1
2191255504,-281,-369,-1,-804,807,-231,0.180755615,-10.31347656,-43.83457947,23.60634041,90294.78906,11,12,-9,31,1
2191265173,-266,-356,43,-802,805,-155,-1.469238281,-10.46348572,-44.73457336,23.62038612,90285.60156,11,10,-8,31,1
2191274719,-261,-373,-44,-801,807,-80,-1.319244385,-9.563476563,-43.08457947,23.62506866,90293.9375,11,11,-9,31,1
2191284380,-260,-381,-73,-806,790,1,-1.319244385,-9.563476563,-43.08457947,23.61570549,90301.69531,11,11,-12,31,1
2191294041,-264,-378,-59,-811,765,81,-2.369247437,-9.863479614,-43.08457947,23.60634041,90289.90625,11,12,-12,31,1
2191303968,-266,-374,-15,-813,745,159,-3.119247437,-11.51348877,-42.03457642,23.62038612,90295.375,11,12,-9,31,1
2191313510,-260,-376,-35,-811,737,235,-3.119247437,-11.51348877,-42.03457642,23.61102295,90293.35938,11,13,-11,31,1
2191323176,-244,-357,-121,-813,727,309,-2.669250488,-13.16348267,-42.93457031,23.61570549,90306.58594,10,12,-12,31,1
2191332838,-252,-387,-115,-819,698,385,-3.869247437,-13.76348877,-42.78457642,23.62038612,90312.47656,10,12,-12,31,1
2191342380,-237,-389,-6,-818,670,465,-3.869247437,-13.46348572,-42.78457642,23.61102295,90295.80469,10,12,-11,31,1
2191352307,-237,-374,51,-809,661,544,-3.869247437,-13.46348572,-42.78457642,23.60634041,90294.78906,10,13,-8,31,1
2191361969,-233,-347,-17,-802,653,618,-5.369247437,-15.26348877,-42.33457947,23.61102295,90298.24219,10,12,-9,31,1
2191371643,-227,-329,-110,-800,633,686,-5.069244385,-14.96348572,-41.58457947,23.61570549,90299.25,10,11,-12,31,1
2191381184,-221,-341,-182,-804,597,753,-5.819244385,-15.71348572,-42.03457642,23.61102295,90295.80469,10,11,-14,31,1
2191390845,-225,-328,-196,-811,552,822,-5.819244385,-15.71348572,-42.03457642,23.61102295,90303.13281,11,10,-12,31,1
2191400773,-224,-326,-103,-816,510,889,-6.569244385,-14.96348572,-41.28457642,23.61570549,90301.69531,10,12,-12,31,1
2191410434,-226,-330,-29,-816,477,955,-7.319244385,-16.16348267,-40.53457642,23.62038612,90307.59375,9,11,-10,31,1
2191419976,-209,-323,37,-809,457,1020,-7.319244385,-16.16348267,-40.53457642,23.62506866,90303.71094,9,11,-10,31,1
2191429642,-223,-324,-6,-800,443,1086,-7.319244385,-16.16348267,-40.53457642,23.62038612,90300.25781,9,11,-8,31,1
2191439565,-203,-297,-109,-794,422,1148,-8.819244385,-16.91348267,-39.78457642,23.62506866,90298.82813,9,11,-10,31,1
2191449231,-202,-287,-184,-795,385,1204,-8.519241333,-18.26348877,-39.93457031,23.62038612,90300.25781,10,10,-13,31,1
2191458772,-218,-276,-222,-800,362,1231,-8.519241333,-18.26348877,-39.93457031,23.61570549,90299.25,10,9,-14,31,1
2191468439,-222,-256,-200,-808,305,1283,-8.969238281,-17.81347656,-39.63458252,23.61570549,90299.25,9,10,-15,31,1
2191478105,-212,-273,-107,-811,256,1332,-11.36924744,-18.11347961,-39.48457336,23.61102295,90300.6875,11,9,-13,31,1
2191488028,-216,-276,-63,-808,216,1382,-9.869247437,-17.66348267,-39.03457642,23.62975121,90302.27344,10,10,-10,31,1
2191497574,-230,-284,-72,-806,185,1433,-9.869247437,-17.66348267,-39.03457642,23.61102295,90300.6875,10,10,-10,31,1
2191507235,-226,-248,-213,-802,157,1480,-11.06924438,-18.41348267,-40.53457642,23.62038612,90305.14844,10,9,-12,31,1
2191516933,-193,-228,-225,-809,119,1525,-13.01924133,-19.01348877,-38.13458252,23.62038612,90310.03906,10,10,-14,31,1
2191526478,-209,-213,-122,-830,67,1564,-12.71923828,-18.56347656,-37.83457947,23.61570549,90306.58594,10,9,-15,31,1
2191536400,-187,-186,-143,-844,13,1599,-12.71923828,-18.56347656,-37.83457947,23.62506866,90318.375,9,8,-13,31,1
2191546061,-192,-169,-218,-850,-37,1630,-14.36924744,-18.86347961,-38.73457336,23.61102295,90308.01563,10,8,-13,31,1
2191555727,-192,-155,-165,-864,-89,1657,-13.01924133,-19.46348572,-37.83457947,23.62038612,90312.47656,8,8,-15,31,1
2191565278,-192,-144,-122,-883,-141,1678,-14.96923828,-21.26348877,-36.63458252,23.62506866,90306.15625,9,7,-13,31,1
2191574944,-182,-122,-237,-886,-189,1695,-14.96923828,-21.26348877,-36.63458252,23.61102295,90300.6875,9,7,-14,31,1
2191584867,-172,-120,-169,-896,-245,1708,-15.41925049,-19.61347961,-36.18457031,23.62038612,90312.47656,10,7,-14,31,1
2191594528,-181,-113,-90,-903,-296,1719,-15.86924744,-19.61347961,-36.18457031,23.61570549,90311.46875,8,8,-12,31,1
2191604074,-179,-94,-137,-898,-337,1729,-16.61924744,-19.61347961,-35.73457336,23.62038612,90312.47656,8,7,-13,31,1
2191613735,-178,-90,-39,-904,-374,1734,-16.61924744,-19.61347961,-35.73457336,23.62506866,90306.15625,9,6,-12,31,1
2191623402,-164,-78,-24,-904,-401,1736,-15.41925049,-19.91348267,-37.23457336,23.62975121,90312.05469,9,7,-10,31,1
2191633325,-188,-65,-113,-900,-423,1736,-15.41925049,-19.91348267,-37.23457336,23.62506866,90313.48438,9,5,-14,31,1
2191642866,-167,-65,-48,-932,-463,1737,-15.41925049,-19.91348267,-37.23457336,23.61570549,90316.35938,9,6,-10,31,1
2191652532,-164,-47,-129,-936,-495,1735,-16.01924133,-19.01348877,-36.03457642,23.61570549,90313.91406,8,4,-11,31,1
2191662202,-171,-35,-70,-938,-529,1726,-16.46923828,-19.76348877,-36.63458252,23.61102295,90308.01563,9,6,-11,31,1
2191671745,-167,-19,0,-944,-559,1715,-17.51924133,-20.21348572,-35.28457642,23.62506866,90311.04688,11,4,-10,31,1
2191681668,-164,-10,-63,-942,-578,1702,-17.51924133,-20.21348572,-35.28457642,23.62038612,90310.03906,9,5,-12,31,1
2202249155,-760,-617,292,1918,1301,-1093,-30.81016541,3.506530762,30.46893311,23.86853409,92703.8125,21,15,-5,31,1
2202258822,-989,-801,324,2004,1362,-975,-29.61016846,1.406539917,32.86894226,23.87789726,92703.42969,22,18,-4,31,1
2202268362,-1087,-872,243,2111,1438,-829,-29.00576782,0.359954834,34.50575256,23.87321472,92702.39844,26,20,-2,31,1
2202278037,-1026,-855,306,2213,1503,-674,-29.00576782,0.359954834,34.50575256,23.87789726,92708.32031,27,21,-4,31,1
2202287698,-890,-750,114,2307,1557,-543,-29.30577087,-1.140045166,34.05575562,23.87321472,92721.96875,25,20,-6,31,1
2202297621,-719,-673,10,2386,1595,-434,-27.35284424,-3.985656738,35.39451599,23.86385155,92717.45313,23,17,-8,31,1
2202307167,-718,-739,88,2449,1615,-337,-27.35284424,-3.985656738,35.39451599,23.86853409,92725.82813,19,16,-11,31,1
2202316828,-862,-900,-39,2534,1641,-219,-26.00283813,-3.835647583,35.54452515,23.87321472,92721.96875,21,21,-9,31,1
2202326494,-955,-1064,36,2617,1660,-70,-26.45283508,-6.085647583,36.5945282,23.87321472,92717.07031,23,21,-12,31,1
2202336035,-1079,-1189,68,2719,1689,105,-25.10284424,-8.635650635,38.99452209,23.87321472,92724.41406,26,24,-10,31,1
2202345957,-1052,-1161,-82,2846,1731,299,-25.10284424,-8.635650635,38.99452209,23.87321472,92714.625,27,28,-9,31,1
2202355624,-873,-1107,-86,2955,1763,474,-23.44648743,-10.41270447,37.29374695,23.87789726,92715.65625,23,26,-11,31,1
2202365285,-790,-1165,-110,3060,1787,637,-22.99649048,-12.36270142,36.9937439,23.89194298,92733.42969,23,26,-13,31,1
2202374826,-711,-1020,-319,3165,1810,802,-21.34649658,-12.96270752,38.64373779,23.8825798,92726.47656,19,25,-13,31,1
2202384760,-792,-1152,-312,3263,1804,947,-21.34649658,-12.96270752,38.64373779,23.89194298,92726.09375,22,25,-15,31,1
2202394421,-840,-1179,-276,3382,1809,1112,-21.34503174,-12.94561768,38.61248779,23.87789726,92710.76563,21,26,-15,31,1
2202404088,-876,-1309,-272,3501,1827,1279,-19.84503174,-16.39561462,38.61248779,23.88726234,92720.17188,24,27,-16,31,1
2202413630,-730,-1208,-249,3628,1860,1459,-18.94599915,-18.46630859,38.41952515,23.87789726,92737.67188,22,27,-14,31,1
2202423291,-671,-1218,-301,3745,1895,1598,-18.94599915,-18.46630859,38.41952515,23.88726234,92734.84375,19,27,-16,31,1
2202433219,-818,-1416,-370,3866,1933,1758,-18.4960022,-19.96630859,37.66952515,23.88726234,92744.63281,21,31,-18,31,1
2202442880,-861,-1490,-363,3996,1969,1946,-16.8460083,-21.01631165,38.56951904,23.8825798,92731.36719,23,32,-18,31,1
2202452426,-624,-1315,-343,4115,2008,2125,-16.8460083,-21.01631165,38.56951904,23.89662552,92719.78906,19,29,-18,31,1
2202462087,-616,-1375,-363,4232,2068,2280,-16.69941711,-23.82725525,36.87167358,23.89194298,92730.98438,19,31,-17,31,1
2202471749,-549,-1324,-448,4338,2134,2413,-17.59942627,-25.6272583,35.97166443,23.89662552,92754.03125,17,28,-20,31,1
2202481683,-675,-1445,-367,4384,2207,2546,-16.54942322,-26.67724609,34.77166748,23.90130806,92764.85156,20,31,-19,31,1
2202491224,-651,-1353,-464,4494,2246,2681,-16.54942322,-26.67724609,34.77166748,23.90130806,92735.49219,19,30,-20,31,1
2202500927,-764,-1317,-618,4584,2318,2796,-15.95381165,-28.42500305,34.57040405,23.88726234,92756.85938,22,29,-21,31,1
2202510588,-579,-1347,-600,4651,2375,2850,-15.80381775,-30.52500916,33.6703949,23.89662552,92780.9375,22,29,-21,31,1
2202520129,-369,-1173,-494,4722,2445,2950,-15.65380859,-32.32501221,32.020401,23.87321472,92748.875,18,29,-23,31,1
2202530092,-438,-1110,-687,4774,2548,3011,-15.65380859,-32.32501221,32.020401,23.87789726,92747.46094,14,28,-20,31,1
2202539754,-663,-1290,-527,4745,2603,3062,-15.05381775,-34.42500305,30.3704071,23.87789726,92754.79688,18,27,-23,31,1
2202549415,-746,-1147,-956,4779,2652,3114,-16.85870361,-35.85224915,28.81718445,23.87321472,92770.88281,22,28,-24,31,1
2202558962,-773,-1160,-836,4763,2672,3146,-16.85870361,-35.85224915,28.81718445,23.87321472,92785.5625,21,27,-26,31,1
2202568623,-670,-901,-1091,4722,2679,3173,-16.85870361,-36.30224609,26.2671814,23.88726234,92778.875,23,24,-29,31,1
2202578559,-604,-881,-1089,4693,2671,3148,-15.95918274,-39.53633118,23.22714233,23.89194298,92779.90625,19,21,-30,31,1
2202588220,-551,-732,-988,4624,2627,3102,-17.45918274,-39.53633118,21.27714539,23.88726234,92798.44531,18,19,-33,31,1
2202597761,-731,-631,-1508,4556,2554,3016,-17.45722961,-39.46064758,21.24198914,23.8825798,92765.60938,20,17,-33,31,1
2202607427,-959,-590,-1568,4423,2428,2940,-17.45722961,-39.46064758,21.24198914,23.8825798,92772.95313,23,17,-37,31,1
2202617089,-1073,-511,-1570,4292,2263,2872,-19.25723267,-39.46064758,20.64198303,23.8825798,92775.39844,27,15,-41,31,1
2202627016,-1077,-685,-1543,4170,2083,2814,-19.70722961,-39.46064758,19.89198303,23.8825798,92770.50781,29,16,-39,31,1
2202636558,-928,-481,-1495,4029,1892,2780,-19.70722961,-39.46064758,19.89198303,23.8825798,92804.75,25,16,-42,31,1
2202646219,-934,-501,-1559,3895,1713,2728,-20.60040283,-39.54376221,17.01805115,23.8825798,92797.41406,25,15,-38,31,1
2202655886,-967,-359,-1741,3772,1515,2681,-22.10040283,-40.74375916,16.4180603,23.8825798,92814.53125,26,12,-41,31,1
2202665427,-954,-572,-1373,3624,1286,2640,-22.24404907,-38.60566711,12.80780029,23.88726234,92781.32031,25,14,-40,31,1
2202675363,-1030,-554,-1473,3503,1096,2642,-22.24404907,-38.60566711,12.80780029,23.8825798,92812.08594,26,15,-40,31,1
2202685023,-890,-560,-1497,3383,906,2645,-24.19404602,-38.90567017,13.25779724,23.88726234,92815.5625,24,15,-36,31,1
2202694684,-805,-324,-1207,3244,726,2659,-24.94404602,-38.60566711,11.75779724,23.89194298,92836.16406,22,11,-38,31,1
2202704230,-803,-224,-1399,3104,553,2640,-26.88574219,-36.02832031,9.352920532,23.89194298,92828.82813,23,8,-34,31,1
2202713892,-855,-414,-1308,3000,406,2623,-26.88574219,-36.02832031,9.352920532,23.8825798,92838.99219,23,12,-35,31,1
2202723815,-796,-319,-1054,2884,232,2625,-28.83575439,-35.27832031,7.252914429,23.89662552,92856.77344,22,11,-33,31,1
2202733480,-776,-218,-1144,2814,95,2617,-30.48574829,-35.87832642,6.202926636,23.89662552,92854.32031,22,10,-31,31,1
2202743021,-800,-246,-1119,2744,-45,2605,-30.48574829,-35.87832642,6.202926636,23.90130806,92855.35938,22,9,-32,31,1
2202752688,-650,-283,-910,2686,-172,2616,-32.13574219,-32.57832336,5.002914429,23.90130806,92830.89844,20,10,-29,31,1
2202762610,-529,-234,-814,2641,-262,2628,-31.97305298,-31.95245361,3.051452637,23.89194298,92816.60156,16,9,-26,31,1
2202772272,-544,-168,-781,2615,-336,2636,-33.47305298,-29.55244446,1.551452637,23.89662552,92817.63281,17,9,-24,31,1
2202781825,-599,-44,-894,2569,-370,2634,-33.47305298,-29.55244446,1.551452637,23.88726234,92810.67188,17,7,-26,31,1
2202791486,-673,112,-952,2512,-460,2616,-34.07305908,-28.20245361,0.201461792,23.89194298,92811.70313,20,3,-28,31,1
2202801152,-651,140,-806,2450,-558,2571,-35.27403259,-26.5539093,0.351455688,23.89194298,92821.49219,20,3,-28,31,1
2202811076,-677,186,-998,2406,-669,2506,-35.27403259,-26.5539093,0.351455688,23.8825798,92819.42188,19,2,-27,31,1
2202820617,-646,216,-617,2382,-775,2433,-35.27403259,-26.5539093,0.351455688,23.88726234,92818.01563,20,1,-27,31,1
2202830283,-706,345,-1030,2369,-849,2353,-36.92402649,-25.95391846,-1.59854126,23.88726234,92837.57813,19,1,-25,31,1
2202839944,-756,406,-910,2317,-964,2256,-36.04307556,-21.92442322,-2.502944946,23.88726234,92852.25781,21,0,-23,31,1
2202849486,-886,569,-749,2259,-1100,2136,-38.89306641,-19.82441711,-4.902938843,23.87789726,92852.64063,22,-3,-30,31,1
2202859414,-876,629,-996,2245,-1225,1987,-38.89306641,-19.82441711,-4.902938843,23.88726234,92862.03906,24,-3,-26,31,1
2202868814,-889,826,-863,2217,-1352,1830,-38.44306946,-19.82441711,-6.402938843,23.88726234,92871.82813,23,-5,-25,31,1
2202878749,-759,716,-567,2210,-1477,1645,-39.20527649,-16.98321533,-6.407333374,23.88726234,92876.71875,21,-7,-24,31,1
2202888290,-799,774,-748,2254,-1558,1471,-39.50527954,-15.33320618,-8.957336426,23.87789726,92879.54688,21,-7,-20,31,1
2202897951,-944,898,-760,2269,-1662,1295,-39.50527954,-15.33320618,-8.957336426,23.89194298,92894.875,22,-6,-23,31,1
2202907880,-1012,981,-668,2266,-1795,1094,-39.81651306,-13.3890686,-10.76269531,23.8825798,92892.8125,26,-11,-25,31,1
2202917541,-1031,1051,-783,2281,-1910,882,-39.96650696,-13.23907471,-11.36270142,23.89662552,92895.90625,26,-11,-22,31,1
2202927087,-917,932,-468,2278,-2034,670,-39.82090759,-10.24053955,-15.56513977,23.89194298,92907.10938,25,-11,-21,31,1
2202936747,-911,894,-354,2289,-2116,485,-39.82090759,-10.24053955,-15.56513977,23.90598869,92919.99219,23,-10,-18,31,1
2202946409,-861,775,-448,2293,-2199,309,-38.02090454,-10.24053955,-16.31513977,23.90130806,92916.51563,23,-8,-18,31,1
2202956336,-779,652,-350,2303,-2264,180,-39.82090759,-8.740539551,-16.61514282,23.90598869,92927.32813,22,-6,-17,31,1
2202965877,-773,690,-168,2312,-2322,67,-39.82090759,-8.740539551,-16.61514282,23.89662552,92920.36719,21,-7,-15,31,1
2202975547,-875,810,-83,2352,-2362,-67,-38.17089844,-6.640533447,-18.71514893,23.89662552,92927.71094,21,-6,-11,31,1
2202985214,-829,807,-16,2400,-2370,-220,-36.82090759,-6.790527344,-21.41514587,23.90130806,92926.29688,24,-8,-9,31,1
2202994755,-630,555,97,2476,-2366,-347,-37.28457642,-7.543945313,-23.52587891,23.90130806,92918.96094,19,-4,-9,31,1
2203004683,-514,420,171,2538,-2358,-423,-37.28457642,-7.543945313,-23.52587891,23.90130806,92916.51563,16,0,-6,31,1
2203014344,-488,357,83,2597,-2337,-474,-35.48457336,-3.943954468,-24.12588501,23.91067123,92921.02344,15,-1,-7,31,1
2203024005,-512,414,181,2649,-2313,-517,-35.48457336,-3.943954468,-24.12588501,23.90598869,92912.65625,16,0,-5,31,1
2203033551,-553,402,343,2699,-2278,-569,-35.18457031,-3.49395752,-25.17588806,23.89194298,92916.89063,16,0,-2,31,1
2203043212,-560,421,235,2785,-2206,-621,-35.18457031,-3.49395752,-25.17588806,23.89194298,92924.22656,16,-1,-2,31,1
2203053135,-501,344,557,2798,-2156,-669,-33.39971924,-3.496398926,-26.69102478,23.90130806,92926.29688,16,0,-1,31,1
2203062801,-491,312,516,2867,-2106,-713,-30.84971619,-1.396392822,-27.59101868,23.89662552,92920.36719,16,0,0,31,1
2203072350,-433,261,262,2901,-2047,-745,-31.89971924,-1.246398926,-30.74102783,23.89662552,92925.26563,14,2,-4,31,1
2203082015,-498,270,724,2953,-1974,-755,-31.89971924,-1.246398926,-30.74102783,23.89662552,92930.15625,16,1,3,31,1
2203091677,-518,245,641,3013,-1883,-780,-30.54971313,0.553604126,-30.59101868,23.89662552,92937.49219,16,1,3,31,1
2203101600,-569,309,842,3058,-1797,-811,-29.19970703,1.453613281,-30.74102783,23.90130806,92933.63281,16,1,3,31,1
2203111146,-579,317,615,3139,-1675,-860,-29.19970703,1.453613281,-30.74102783,23.89662552,92917.92188,17,0,3,31,1
2203120807,-559,297,630,3183,-1571,-904,-28.14971924,1.903610229,-34.04101563,23.89662552,92925.26563,16,1,4,31,1
2203130473,-666,367,1006,3217,-1466,-964,-27.55117798,4.754089355,-34.19297791,23.89662552,92937.49219,18,1,3,31,1
2203140014,-639,326,779,3289,-1323,-1031,-27.40118408,5.804092407,-35.0929718,23.89194298,92929.125,17,1,4,31,1
2203149676,-660,413,831,3343,-1188,-1101,-27.40118408,5.804092407,-35.0929718,23.90598869,92924.88281,18,0,6,31,1
2203159603,-592,296,910,3381,-1070,-1178,-25.89434814,8.801651001,-35.8327179,23.90130806,92918.96094,19,1,4,31,1
2203169265,-716,390,756,3439,-945,-1248,-25.74433899,10.1516571,-35.23272705,23.89662552,92922.82031,17,1,7,31,1
2203178818,-733,487,1005,3479,-820,-1349,-25.74433899,11.801651,-32.682724,23.89662552,92942.39063,21,-1,5,31,1
2203188740,-695,519,1031,3514,-691,-1472,-25.74433899,11.801651,-32.682724,23.89662552,92954.61719,20,0,7,31,1
2203198438,-670,542,807,3566,-557,-1606,-25.89434814,13.1516571,-34.78271484,23.89662552,92974.1875,19,-1,9,31,1
2203208104,-607,489,1123,3610,-457,-1748,-26.03555298,14.04676819,-34.62002563,23.89662552,92976.63281,18,-2,6,31,1
2203217645,-523,469,890,3685,-352,-1872,-25.73554993,15.09677124,-32.37002563,23.90598869,93000.71875,17,-1,8,31,1
2203227306,-504,484,684,3752,-260,-2009,-25.73554993,15.09677124,-32.37002563,23.91067123,92979.73438,15,-2,8,31,1
2203236973,-736,716,1257,3780,-201,-2147,-25.73554993,15.09677124,-32.37002563,23.89194298,92985.38281,18,-3,5,31,1
2203246895,-644,768,1007,3847,-99,-2345,-26.03213501,17.34481812,-31.91563416,23.90130806,93009.46875,19,-7,11,31,1
2203256441,-600,765,710,3904,-12,-2544,-26.03213501,17.34481812,-31.91563416,23.90130806,92980.11719,18,-8,7,31,1
2203266102,-585,674,1117,3928,18,-2737,-26.78213501,17.79481506,-30.56562805,23.90598869,92988.48438,19,-7,7,31,1
2203275770,-616,628,850,3964,53,-2913,-27.38214111,18.69480896,-30.41563416,23.90130806,92960.54688,18,-4,8,31,1
2203285698,-562,609,691,4002,69,-3076,-27.38214111,20.34481812,-28.46563721,23.90130806,92987.45313,17,-2,3,31,1
2203295240,-559,525,1026,4014,52,-3228,-27.38214111,20.34481812,-28.46563721,23.90130806,92977.67188,17,-2,4,31,1
2203304906,-596,579,861,4056,58,-3377,-27.69287109,19.45457458,-26.67784119,23.90130806,93004.57813,17,-2,9,31,1
2203314604,-561,579,736,4102,63,-3527,-29.7928772,18.55458069,-26.52783203,23.91067123,92989.52344,17,-5,4,31,1
2203324145,-479,452,1017,4094,19,-3654,-29.94287109,20.65458679,-23.82783508,23.89662552,92986.42188,16,-1,7,63,1
2203333811,-506,321,704,4117,-3,-3761,-29.94287109,20.65458679,-23.82783508,23.90598869,92983.59375,16,0,4,31,1
2203343734,-387,253,718,4114,-41,-3825,-31.30899048,18.567276,-22.19200134,23.91067123,92991.96875,14,1,2,31,1
2203353395,-420,51,983,4140,-85,-3868,-32.95898438,19.4672699,-21.59199524,23.91535187,92975.875,13,4,8,31,1
2203362941,-577,-142,726,4149,-131,-3883,-33.85899353,18.567276,-20.24200439,23.92471695,93017.08594,17,5,6,31,1
2203372611,-574,-647,813,4190,-168,-3881,-33.85899353,18.567276,-20.24200439,23.92003441,93011.16406,19,14,3,31,1
2203382536,-597,-658,866,4246,-233,-3758,-35.50898743,17.6672821,-19.79199219,23.91535187,92990.55469,19,14,3,31,1
2203392198,-548,-480,1005,4253,-285,-3607,-36.55899048,15.11776733,-18.44200134,23.91067123,92996.85938,19,16,5,31,1
2203401739,-493,-462,907,4294,-318,-3486,-36.55899048,15.11776733,-18.44200134,23.91067123,92987.07813,16,12,4,31,1
2203411405,-525,-778,748,4322,-369,-3357,-37.60899353,14.81776428,-15.14199829,23.91067123,92965.0625,17,14,2,31,1
2203421066,-640,-396,907,4357,-400,-3176,-36.57168579,14.52459717,-16.64883423,23.92003441,92952.44531,18,17,4,31,1
2203430993,-544,-405,808,4384,-415,-3057,-37.62168884,10.92460632,-14.39883423,23.91067123,93016.42969,18,10,6,31,1
2203440534,-630,-914,999,4428,-429,-2874,-37.62168884,10.92460632,-14.39883423,23.92003441,93020.94531,19,17,5,31,1
2203450195,-605,-877,917,4514,-396,-2644,-37.62168884,10.92460632,-14.39883423,23.92003441,93011.16406,19,20,10,31,1
2203459861,-491,-513,1030,4589,-364,-2452,-38.22167969,11.52459717,-14.24884033,23.92003441,92989.14063,18,19,7,31,1
2203469401,-424,-376,894,4646,-340,-2357,-39.12168884,10.92460632,-13.04882813,23.92003441,93001.375,15,12,6,31,1
2203479335,-490,-345,754,4722,-324,-2278,-39.12168884,10.92460632,-13.04882813,23.92003441,93030.73438,13,14,7,31,1
2203488997,-535,-315,1154,4773,-300,-2217,-38.39903259,8.682418823,-14.11250305,23.92003441,93060.08594,15,11,7,31,1
2203498658,-564,-734,1065,4905,-230,-2126,-39.59902954,8.682418823,-12.61250305,23.92471695,93036.65625,17,18,10,31,1
2203508204,-596,-193,1079,4980,-158,-2010,-40.64903259,8.232421875,-12.3125,23.92939758,93035.25,17,11,9,31,1
2203517865,-533,-222,1127,5051,-65,-1939,-40.64903259,8.232421875,-12.3125,23.92471695,93026.875,17,7,9,31,1
2203527788,-584,-584,1249,5106,24,-1821,-41.54902649,7.782409668,-10.96250916,23.92003441,93047.85938,17,11,9,31,1
2203537453,-655,-640,1229,5162,189,-1646,-40.96514893,7.936325073,-10.06835938,23.93408012,93021.60156,18,17,14,31,1
2203546995,-617,-865,1388,5173,343,-1503,-40.66514587,6.286315918,-9.318359375,23.93408012,92997.14063,18,20,11,31,1
2203556661,-660,-481,1264,5238,517,-1370,-40.66514587,6.286315918,-9.318359375,23.92939758,92996.10156,18,20,15,31,1
2203566323,-661,-82,1025,5277,655,-1339,-41.56513977,6.58631897,-8.868362427,23.92939758,93030.35156,17,8,9,31,1
2203576253,-562,-259,1131,5306,809,-1323,-41.71514893,6.736328125,-7.96836853,23.93408012,93048.51563,17,9,7,31,1
2203585798,-509,-78,1043,5339,962,-1298,-41.71514893,6.736328125,-7.96836853,23.92939758,93069.5,15,7,10,31,1
2203595459,-502,78,668,5353,1080,-1324,-42.76513672,6.58631897,-7.068359375,23.92003441,93064.98438,16,4,3,31,1
2203605125,-502,41,833,5349,1143,-1395,-41.41514587,7.186325073,-5.868362427,23.91067123,93070.25,16,4,2,31,1
2203614667,-480,-150,958,5361,1234,-1459,-41.73614502,4.79119873,-4.073257446,23.92003441,93057.64063,16,6,7,31,1
2203624589,-478,-99,870,5364,1288,-1503,-41.73614502,4.79119873,-4.073257446,23.92003441,93087,16,6,7,31,1
2203634255,-463,-58,772,5361,1390,-1527,-42.18614197,3.29119873,-2.873245239,23.91535187,93100.64063,15,6,5,31,1
2203643916,-378,7,632,5372,1493,-1589,-42.33613586,4.941207886,0.126754761,23.92471695,93090.48438,14,4,1,31,1
2203653458,-344,-110,829,5370,1533,-1681,-42.35469055,4.943649292,0.126266479,23.92939758,93098.85156,13,6,3,31,1
2203663385,-326,-86,514,5376,1583,-1760,-42.35469055,4.943649292,0.126266479,23.92939758,93101.30469,13,6,2,31,1
2203673055,-323,-69,541,5376,1617,-1838,-42.0546875,1.493652344,1.926254272,23.92471695,93105.15625,13,6,2,31,1
2203682721,-399,-102,467,5379,1619,-1923,-44.45469666,1.793640137,3.576263428,23.91535187,93095.75,14,6,0,31,1
2203692262,-378,-85,474,5389,1628,-2002,-43.11494446,-0.456848145,4.927719116,23.91535187,93100.64063,14,7,1,31,1
2203701924,-454,-95,368,5390,1612,-2089,-43.11494446,-0.456848145,4.927719116,23.92939758,93096.40625,14,5,-2,31,1
2203711590,-525,-133,296,5385,1583,-2171,-43.56494141,-3.456848145,5.227722168,23.91067123,93104.5,17,7,-1,31,1
2203721513,-437,-184,175,5380,1535,-2239,-42.97080994,-4.508300781,6.879196167,23.91535187,93115.32031,16,7,-3,31,1
2203731059,-502,-275,215,5381,1459,-2292,-42.97080994,-4.508300781,6.879196167,23.91535187,93125.10938,16,9,-5,31,1
2203740720,-520,-338,156,5401,1387,-2327,-43.57080078,-7.358306885,7.17918396,23.92939758,93133.10938,16,10,-5,31,1
2203750381,-679,-478,149,5433,1294,-2340,-42.963974,-10.20489502,8.377731323,23.91535187,93127.55469,17,10,-6,31,1
2203760309,-712,-549,164,5464,1203,-2315,-41.01397705,-11.85488892,6.577728271,23.92003441,93140.82031,21,13,-6,31,1
2203769588,-674,-494,79,5501,1124,-2286,-41.01397705,-11.85488892,6.577728271,23.91535187,93132.44531,20,13,-6,31,1
2203779517,-744,-617,217,5531,1040,-2248,-41.46250916,-14.5539093,6.877731323,23.91535187,93120.21094,22,15,-6,31,1
2203789183,-669,-575,97,5574,963,-2200,-39.96250916,-16.50390625,8.077728271,23.92939758,93140.44531,20,16,-9,31,1
2203798725,-773,-719,218,5621,895,-2137,-39.96250916,-20.25390625,6.577728271,23.92003441,93133.48438,21,17,-7,31,1
2203808652,-793,-805,287,5680,842,-2049,-39.96250916,-20.25390625,6.577728271,23.92471695,93134.51563,21,19,-6,31,1
2203818313,-754,-825,116,5755,800,-1947,-38.60371399,-21.29463196,5.676254272,23.92003441,93143.26563,20,20,-5,31,1
2203827975,-917,-987,268,5815,748,-1828,-37.10371399,-23.24462891,4.626266479,23.92003441,93131.03125,23,21,-6,31,1
2203837521,-917,-993,255,5900,724,-1683,-37.10371399,-23.99462891,4.176254272,23.91067123,93141.19531,27,23,-4,31,1
2203847182,-940,-1021,228,5984,710,-1544,-37.10371399,-23.99462891,4.176254272,23.91535187,93139.78125,23,22,-3,31,1
2203857104,-931,-1123,355,6089,720,-1383,-36.65371704,-27.59463501,0.276260376,23.91067123,93141.19531,24,25,-4,31,1
2203866770,-1012,-1220,336,6190,742,-1212,-36.64102173,-27.57510376,0.276748657,23.91067123,93143.64063,24,28,-3,31,1
2203876317,-914,-1061,301,6290,781,-1043,-36.19102478,-27.57510376,-1.073257446,23.92003441,93135.92969,24,25,-3,31,1
2203885984,-1077,-1222,579,6365,842,-900,-36.19102478,-27.57510376,-1.073257446,23.91535187,93159.35156,26,26,-1,31,1
2203895645,-1076,-1233,585,6462,958,-738,-35.59101868,-27.12510681,-1.973251343,23.91535187,93159.35156,28,27,1,31,1
2203905568,-1080,-1193,633,6520,1100,-592,-35.87637329,-28.45166016,-5.568862915,23.92003441,93157.94531,28,27,1,31,1
2203915114,-877,-1069,604,6620,1175,-530,-35.87637329,-28.45166016,-5.568862915,23.92003441,93157.94531,23,24,1,31,1
2203924775,-906,-1009,502,6681,1321,-442,-33.92637634,-26.80166626,-6.91885376,23.91535187,93154.46094,24,25,0,31,1
2203934441,-840,-974,517,6718,1474,-383,-34.97052002,-26.6428833,-9.915924072,23.92003441,93140.82031,23,23,-1,31,1
2203943983,-934,-992,646,6741,1618,-357,-35.12051392,-25.59288025,-10.81591797,23.92471695,93158.98438,25,23,1,31,1
2203953905,-932,-954,564,6760,1781,-342,-35.12051392,-25.59288025,-10.81591797,23.92003441,93155.5,24,22,0,31,1
2203963571,-882,-936,573,6760,1928,-353,-35.57051086,-23.94287109,-12.46592712,23.91535187,93154.46094,24,22,0,31,1
2203973241,-873,-943,488,6757,2063,-387,-35.42149353,-22.14434814,-14.41641235,23.92003441,93170.17969,23,22,-1,31,1
2203982785,-748,-933,379,6765,2216,-416,-35.87149048,-21.39434814,-14.8664093,23.92003441,93175.07031,23,23,0,31,1
2203992447,-609,-856,260,6742,2299,-477,-35.87149048,-21.39434814,-14.8664093,23.92939758,93182.03906,20,21,-3,31,1
2204002370,-578,-892,296,6761,2367,-557,-36.77197266,-18.09434509,-16.81640625,23.92003441,93167.73438,18,20,-5,31,1
2204012035,-539,-971,379,6760,2428,-631,-34.22198486,-18.09434509,-15.01641846,23.92003441,93192.19531,18,22,-6,31,1
2204021577,-494,-969,290,6776,2501,-702,-37.07197571,-15.84434509,-16.81640625,23.91067123,93168.10156,17,23,-5,31,1
2204031239,-639,-996,268,6788,2570,-777,-37.07197571,-15.84434509,-16.81640625,23.90598869,93179.29688,17,22,-2,31,1
2204041166,-573,-1046,408,6788,2613,-855,-38.57197571,-14.19433594,-16.81640625,23.90598869,93184.19531,19,24,-4,31,1
2204050482,-574,-999,344,6802,2669,-933,-39.17198181,-13.29434204,-14.41641235,23.91067123,93187.67969,18,24,-1,31,1
2204060409,-667,-1050,517,6811,2710,-1020,-39.17198181,-13.29434204,-14.41641235,23.92003441,93192.19531,20,24,0,31,1
2204070071,-674,-1157,597,6844,2763,-1100,-38.42735291,-11.34727478,-15.91934204,23.91067123,93143.64063,20,25,-1,31,1
2204079738,-729,-1165,608,6885,2820,-1169,-38.42735291,-11.34727478,-15.91934204,23.91067123,93197.46094,21,26,2,31,1
2204089665,-760,-1069,452,6917,2854,-1249,-39.62734985,-11.34727478,-13.36933899,23.90598869,93191.53125,22,24,-1,31,1
2204099206,-861,-1232,661,6955,2874,-1340,-39.62734985,-11.34727478,-13.36933899,23.91067123,93163.21094,23,26,1,31,1
2204108872,-787,-1155,330,7001,2870,-1414,-40.83174133,-9.248733521,-13.22129822,23.91067123,93209.69531,22,27,0,31,1
2204118534,-851,-1160,434,7040,2845,-1504,-40.08174133,-9.248733521,-12.17129517,23.90130806,93188.04688,23,25,-2,31,1
2204128075,-935,-1311,451,7093,2808,-1587,-40.68174744,-9.398742676,-9.77130127,23.91535187,93208.28125,24,28,-1,31,1
2204138004,-999,-1329,235,7163,2753,-1628,-40.68174744,-9.398742676,-9.77130127,23.91067123,93204.79688,26,30,-3,31,1
2204147664,-951,-1338,502,7216,2669,-1667,-41.74249268,-8.201660156,-8.274719238,23.90598869,93198.875,26,29,-2,31,1
2204157325,-1050,-1477,62,7294,2583,-1690,-41.29248047,-6.851669312,-7.674713135,23.91067123,93231.71094,27,30,-5,31,1
2204166872,-1113,-1525,-380,7346,2423,-1673,-42.79248047,-10.00166321,-6.774719238,23.91535187,93269.44531,28,33,-15,31,1
2204176541,-1023,-1461,94,7367,2209,-1626,-42.79248047,-10.00166321,-6.774719238,23.91535187,93205.83594,28,32,-10,31,1
2204186468,-929,-1625,-79,7403,2028,-1566,-42.79248047,-10.00166321,-5.724716187,23.90598869,93218.44531,26,35,-12,31,1
2204196129,-659,-1459,136,7424,1941,-1483,-42.04248047,-8.80166626,-5.274719238,23.92003441,93226.44531,22,33,-5,31,1
2204205670,-606,-1279,201,7511,1867,-1424,-41.75177002,-11.35606384,-3.325698853,23.92939758,93223.625,18,30,-8,31,1
2204215336,-698,-1266,-55,7553,1740,-1404,-41.75177002,-11.35606384,-3.325698853,23.92003441,93241.125,19,29,-8,31,1
2204224998,-673,-1271,108,7591,1625,-1371,-42.35176086,-11.50605774,-3.475692749,23.92471695,93225.03906,20,29,-11,31,1
2204234925,-772,-1410,494,7671,1541,-1318,-41.45176697,-12.10606384,-4.375686646,23.92939758,93228.51563,20,31,-2,31,1
2204244466,-699,-1324,427,7766,1470,-1226,-41.45176697,-12.10606384,-4.375686646,23.91535187,93220.51563,19,27,-3,31,1
2204254127,-687,-1397,419,7867,1427,-1131,-42.35176086,-11.95605469,-3.175689697,23.92003441,93265.58594,18,29,-4,31,1
2204263794,-668,-1228,178,7978,1404,-1049,-40.85176086,-12.70605469,-2.425689697,23.92471695,93254.39063,18,29,-4,31,1
2204273344,-661,-1340,494,8062,1375,-978,-40.55175781,-12.40606689,-6.025695801,23.91535187,93247.42969,19,30,-1,31,1
2204283271,-639,-1148,382,8155,1366,-898,-40.55175781,-12.40606689,-6.025695801,23.91535187,93220.51563,18,27,-4,31,1
2204292932,-689,-1114,373,8246,1388,-853,-40.55175781,-12.40606689,-6.025695801,23.92471695,93247.05469,18,27,0,31,1
2204302593,-737,-1117,681,8330,1418,-832,-42.50177002,-12.55606079,-4.075698853,23.93876266,93252.60938,20,26,-1,31,1
2204312139,-902,-982,573,8438,1490,-825,-42.50177002,-13.30606079,-4.375686646,23.92939758,93279.89844,21,23,1,31,1
2204321801,-909,-897,580,8525,1560,-827,-42.50177002,-13.30606079,-4.375686646,23.93876266,93274.63281,24,23,3,31,1
2204331723,-926,-1069,799,8595,1622,-830,-41.30175781,-12.40606689,-4.525695801,23.92003441,93277.82031,25,21,1,31,1
2204341389,-843,-993,520,8687,1716,-816,-39.95176697,-10.15606689,-4.825698853,23.92939758,93279.89844,23,26,4,31,1
2204350930,-742,-616,557,8742,1788,-838,-41.30175781,-10.45605469,-4.975692749,23.92939758,93275,21,20,1,31,1
2204360596,-768,-630,502,8773,1823,-930,-41.30175781,-10.45605469,-4.975692749,23.92939758,93272.55469,21,14,-1,31,1
2204370266,-948,-738,426,8835,1860,-1022,-41.75177002,-10.15606689,-4.825698853,23.92939758,93270.10938,23,19,1,31,1
2204380186,-895,-538,445,8855,1879,-1117,-41.75177002,-10.60606384,-6.175689697,23.92939758,93277.44531,24,17,-2,31,1
2204389732,-812,-547,413,8871,1871,-1249,-41.75177002,-10.60606384,-6.175689697,23.92939758,93289.67969,23,13,-3,31,1
2204399394,-739,-474,306,8901,1871,-1379,-39.95176697,-9.856063843,-5.125686646,23.92939758,93299.46875,22,14,-3,31,1
2204409059,-870,-532,396,8900,1836,-1513,-40.70176697,-10.15606689,-5.575698853,23.92003441,93299.83594,21,14,-3,31,1
2204418600,-865,-430,74,8892,1779,-1639,-41.60176086,-10.45605469,-5.725692749,23.93408012,93305.39844,22,14,-6,31,1
2204428523,-1069,-596,246,8889,1684,-1757,-41.60176086,-10.45605469,-5.725692749,23.93408012,93317.63281,24,16,-8,31,1
2204438189,-1005,-647,307,8920,1597,-1849,-41.60176086,-11.95605469,-4.975692749,23.93408012,93312.73438,27,16,-6,31,1
2204447850,-956,-654,86,8957,1507,-1921,-40.40176392,-11.35606384,-5.575698853,23.9434433,93334.38281,26,17,-6,31,1
2204457391,-908,-623,-44,8979,1368,-1983,-40.85176086,-11.50605774,-4.525695801,23.93408012,93332.3125,24,16,-10,31,1
2204467058,-1041,-737,-39,8986,1213,-2031,-40.85176086,-11.50605774,-4.525695801,23.93876266,93301.53906,25,17,-10,31,1
2204476986,-1070,-788,-3,9009,1132,-2040,-41.75177002,-12.10606384,-5.125686646,23.92939758,93341.05469,26,19,-8,31,1
2204486652,-1208,-915,40,9046,976,-2033,-40.70176697,-13.75605774,-7.225692749,23.92939758,93343.50781,28,22,-10,31,1
2204496193,-1287,-1014,89,9067,827,-1990,-40.70176697,-13.75605774,-7.225692749,23.93408012,93322.52344,32,24,-7,31,1
2204505854,-1195,-1007,9,9119,697,-1909,-40.70176697,-13.75605774,-7.225692749,23.93876266,93343.13281,29,24,-9,31,1
2204515520,-1159,-1002,115,9155,570,-1814,-39.95176697,-14.05606079,-6.625686646,23.9434433,93349.0625,29,24,-9,31,1
2204525443,-1147,-1032,89,9204,464,-1714,-41.45274353,-12.85655212,-8.575683594,23.94812584,93364.78125,29,24,-9,31,1
2204534989,-1085,-1037,105,9254,365,-1594,-41.45274353,-12.85655212,-8.575683594,23.93876266,93365.15625,27,24,-10,31,1
2204544650,-982,-971,48,9301,285,-1478,-40.70274353,-12.85655212,-9.025695801,23.93876266,93367.60156,25,23,-9,31,1
2204554311,-943,-988,125,9343,218,-1353,-39.20274353,-12.10655212,-10.82568359,23.9434433,93380.875,25,23,-9,31,1
2204564239,-1069,-1034,203,9391,176,-1226,-39.65274048,-9.856552124,-11.87568665,23.93876266,93374.9375,26,23,-7,31,1
2204573518,-1020,-999,156,9444,167,-1092,-39.65274048,-9.856552124,-11.87568665,23.9434433,93375.97656,26,24,-4,31,1
2204583448,-1011,-964,194,9483,159,-966,-38.62324524,-10.01533508,-13.53643799,23.93876266,93370.04688,26,23,-5,31,1
2204593114,-947,-930,197,9515,177,-857,-39.97325134,-8.215332031,-13.83642578,23.93876266,93370.04688,25,22,-6,31,1
2204602655,-1006,-878,232,9530,217,-765,-39.67324829,-8.215332031,-15.63642883,23.9434433,93368.64063,24,23,-5,31,1
2204612321,-954,-877,326,9543,273,-691,-39.67324829,-8.215332031,-15.63642883,23.93876266,93350.47656,25,22,-4,31,1
2204622244,-906,-828,271,9550,354,-629,-39.09521484,-4.168273926,-15.04864502,23.9434433,93349.0625,24,21,-4,31,1
2204631904,-877,-850,345,9542,433,-591,-39.3952179,-2.368270874,-16.09863281,23.95748901,93347.28906,24,21,-2,31,1
2204641450,-780,-716,299,9532,525,-564,-39.3952179,-2.368270874,-16.09863281,23.95748901,93347.28906,22,20,-5,31,1
2204651111,-690,-685,216,9512,597,-580,-39.69522095,0.631729126,-17.14863586,23.95280838,93351.14063,20,18,-3,31,1
2204661033,-752,-704,374,9473,669,-608,-40.15644836,1.982711792,-15.05548096,23.94812584,93362.33594,20,18,-3,31,1
2204670699,-850,-664,503,9448,761,-645,-40.45645142,4.082702637,-13.85546875,23.94812584,93367.22656,21,19,-2,31,1
2204680246,-915,-627,310,9410,859,-700,-40.45645142,4.082702637,-13.85546875,23.93408012,93354.32813,23,17,-1,31,1
2204689912,-851,-603,569,9348,925,-773,-41.05645752,4.832702637,-11.30548096,23.94812584,93369.67969,23,15,-1,31,1
2204699573,-760,-567,527,9302,1023,-864,-42.12207031,6.636611938,-8.911331177,23.93876266,93352.92188,23,16,-1,31,1
2204709495,-678,-503,250,9270,1070,-976,-42.12207031,6.636611938,-8.911331177,23.93876266,93367.60156,19,13,-3,31,1
2204719041,-615,-479,304,9205,1066,-1092,-42.12207031,6.636611938,-8.911331177,23.94812584,93374.57031,18,14,-4,31,1
2204728703,-651,-456,358,9154,1071,-1212,-42.27452087,9.488082886,-8.311828613,23.9434433,93383.32031,17,14,-2,31,1
2204738369,-710,-507,22,9140,1052,-1337,-40.92451477,8.58807373,-5.011825562,23.94812584,93355,20,14,-5,31,1
2204747910,-785,-439,147,9060,962,-1442,-44.65791321,8.882217407,-3.959381104,23.9434433,93356.40625,21,13,-9,31,1
2204757833,-744,-403,429,9035,928,-1558,-44.65791321,8.882217407,-3.959381104,23.9434433,93375.97656,21,13,-4,31,1
2204767498,-764,-460,193,8983,871,-1618,-42.12304688,7.837585449,0.841110229,23.9434433,93385.76563,21,13,-2,31,1
2204777168,-686,-485,197,8932,800,-1722,-42.57305908,6.787597656,0.991104126,23.9434433,93405.33594,20,15,-6,31,1
2204786714,-840,-457,198,8896,696,-1797,-41.82305908,5.587585449,3.541107178,23.93876266,93377.38281,22,13,-5,31,1
2204796375,-892,-525,70,8841,578,-1864,-41.82305908,5.587585449,3.541107178,23.94812584,93421.05469,24,15,-8,31,1
2204806298,-901,-488,224,8787,431,-1899,-43.77452087,0.938079834,5.791595459,23.95280838,93385.39063,24,13,-5,31,1
2204815964,-1029,-339,200,8764,303,-1934,-43.62451172,0.488082886,7.441589355,23.95280838,93407.41406,25,12,-2,31,1
2204825505,-1117,-377,274,8737,175,-1971,-43.02452087,-2.511917114,6.841598511,23.94812584,93391.69531,28,13,-7,31,1
2204835167,-1120,-583,244,8725,37,-1982,-43.02452087,-2.511917114,6.841598511,23.94812584,93391.69531,28,15,-5,31,1
2204844834,-1104,-544,168,8730,-101,-1931,-43.1789093,-4.162414551,6.693054199,23.94812584,93403.92969,28,15,-5,31,1
2204854756,-1034,-580,432,8719,-233,-1870,-41.82891846,-6.712402344,6.093063354,23.94812584,93406.375,26,15,-3,31,1
2204864302,-988,-519,356,8731,-337,-1796,-41.82891846,-6.712402344,6.093063354,23.95280838,93404.96875,26,15,-5,31,1
2204873972,-981,-511,321,8744,-427,-1720,-42.12890625,-7.762405396,5.943054199,23.95748901,93396.21875,25,14,-2,31,1
2204883632,-1148,-394,520,8752,-510,-1638,-42.87890625,-10.7624054,4.143051147,23.95280838,93417.20313,27,14,-1,31,1
2204893178,-1046,-295,514,8773,-562,-1574,-41.82843018,-12.11192322,3.243057251,23.95280838,93436.77344,28,12,0,31,1
2204903100,-1172,-290,467,8793,-604,-1516,-41.82843018,-12.11192322,3.243057251,23.9434433,93434.69531,27,10,0,31,1
2204912802,-1160,-13,522,8795,-638,-1465,-42.57843018,-14.06192017,-0.356948853,23.95280838,93458.79688,28,9,0,31,1
2204922463,-1103,256,548,8782,-672,-1470,-42.57354736,-14.05899048,-0.356460571,23.95280838,93453.89844,28,3,-1,31,1
2204932005,-1058,389,507,8774,-699,-1512,-41.52354431,-15.25898743,-1.55645752,23.95280838,93397.625,26,1,1,31,1
2204941932,-1068,295,538,8748,-746,-1567,-41.52354431,-15.25898743,-1.55645752,23.9668541,93393.40625,27,0,0,31,1
2204951332,-986,276,394,8745,-795,-1592,-41.82354736,-14.50898743,-2.606460571,23.9668541,93388.50781,26,1,-2,31,1
2204961254,-905,483,261,8726,-862,-1621,-41.8225708,-13.75849915,-5.905960083,23.9668541,93398.29688,24,0,-1,31,1
2204970800,-974,383,492,8691,-950,-1662,-40.77256775,-14.0585022,-8.605957031,23.95748901,93410.89844,24,-1,-5,31,1
2204980468,-889,371,313,8688,-1008,-1677,-40.77256775,-14.0585022,-8.605957031,23.9668541,93427.65625,24,0,-3,31,1
2204990396,-971,411,293,8664,-1095,-1695,-39.87304688,-15.40899658,-11.45596313,23.9668541,93461.91406,23,-1,-3,31,1
2205000057,-1027,142,637,8642,-1162,-1695,-39.27305603,-12.10899353,-15.20596313,23.9668541,93410.53125,27,0,-1,31,1
2205009598,-1031,87,533,8633,-1170,-1637,-39.27305603,-12.10899353,-15.20596313,23.96217155,93433.96094,26,3,2,31,1
2205019265,-1088,149,486,8608,-1180,-1573,-38.97012329,-12.55752563,-17.75401306,23.9668541,93449.67969,26,3,1,31,1
2205028927,-1054,277,332,8576,-1198,-1521,-38.97012329,-11.05752563,-20.30401611,23.9668541,93449.67969,27,1,-2,31,1
2205038854,-1041,282,312,8559,-1247,-1491,-36.43330383,-8.062408447,-20.91523743,23.97153473,93467.84375,26,0,-2,31,1
2205048395,-963,307,195,8516,-1268,-1474,-36.43330383,-8.062408447,-20.91523743,23.96217155,93487.78906,26,0,-4,31,1
2205058056,-1056,327,454,8466,-1313,-1441,-35.38330078,-6.112411499,-21.96524048,23.97153473,93497.20313,27,0,-2,31,1
2205067723,-961,315,261,8418,-1332,-1413,-36.43330383,-5.362411499,-23.91523743,23.97153473,93509.4375,24,0,-3,31,1
2205077270,-1092,339,326,8359,-1363,-1382,-36.28330994,-1.312408447,-24.81524658,23.97153473,93506.99219,29,0,-3,31,1
2205087198,-1027,292,228,8337,-1353,-1355,-36.28330994,-1.312408447,-24.81524658,23.97621727,93498.24219,27,1,-3,31,1
2205096859,-1191,307,309,8294,-1366,-1317,-34.78623962,3.637588501,-25.86816406,23.9668541,93513.29688,29,0,-3,31,1
2205106520,-1305,294,521,8264,-1358,-1282,-34.49307251,5.289550781,-25.12548828,23.96217155,93502.46875,33,0,-2,31,1
2205116067,-1451,354,311,8253,-1305,-1264,-35.39306641,7.389541626,-25.27549744,23.96217155,93512.25781,33,1,0,31,1
2205125728,-1440,246,490,8211,-1275,-1241,-35.39306641,7.389541626,-25.27549744,23.96217155,93502.46875,36,1,-2,31,1
2205135389,-1503,199,479,8188,-1234,-1212,-35.39306641,7.389541626,-25.27549744,23.95748901,93506.32031,36,1,-2,31,1
2205145317,-1473,308,144,8164,-1191,-1188,-35.09259033,11.28955078,-24.67500305,23.9668541,93513.29688,35,1,-3,31,1
2205154858,-1524,267,392,8080,-1180,-1178,-35.39257813,13.23954773,-22.7250061,23.95748901,93525.89844,34,1,-2,31,1
2205164524,-1555,276,310,8014,-1152,-1174,-35.39257813,13.23954773,-22.7250061,23.96217155,93519.59375,37,1,-3,31,1
2205174194,-1593,207,254,7955,-1116,-1164,-34.79502869,15.94198608,-21.82696533,23.97621727,93510.47656,37,1,-4,31,1
2205184114,-1414,131,362,7885,-1102,-1149,-33.89501953,18.79197693,-20.17695618,23.97621727,93542.28906,35,1,-4,31,1
2205193661,-1186,74,164,7858,-1080,-1120,-33.89501953,18.79197693,-20.17695618,23.9668541,93523.08594,31,3,-6,31,1
2205203323,-1126,20,57,7833,-1080,-1081,-33.59649658,21.94442749,-18.37792969,23.97153473,93551.03906,28,3,-6,31,1
2205212989,-1228,-4,185,7802,-1093,-1026,-33.74649048,21.34442139,-18.22793579,23.97153473,93536.35938,30,4,-9,31,1
2205222529,-1277,-10,228,7788,-1081,-970,-34.05039978,23.74980164,-14.17988586,23.95748901,93545.46875,31,4,-6,31,1
2205232452,-1382,17,300,7778,-1046,-921,-34.05039978,23.74980164,-14.17988586,23.96217155,93558.74219,30,5,-4,31,1
2205242118,-1286,-91,277,7769,-994,-880,-36.00039673,24.49980164,-11.32989502,23.97153473,93551.03906,33,5,-4,31,1
2205251779,-1252,-112,261,7757,-948,-824,-34.51065063,24.51347351,-8.032333374,23.9668541,93562.23438,30,7,-4,31,1
2205261321,-1302,-95,311,7745,-886,-777,-34.36065674,26.61346436,-5.782333374,23.9668541,93567.125,31,6,-2,31,1
2205270987,-1333,-113,460,7726,-813,-737,-34.36065674,26.61346436,-5.782333374,23.97621727,93564.3125,31,7,-3,31,1
2205280915,-1406,-84,482,7730,-705,-703,-35.26065063,25.26347351,-3.382339478,23.9668541,93559.78125,32,7,0,31,1
2205290581,-1456,-105,569,7710,-584,-691,-36.46748352,25.42274475,-0.232330322,23.9668541,93567.125,33,6,0,31,1
2205300123,-1432,-119,569,7710,-456,-686,-36.46748352,25.42274475,-0.232330322,23.96217155,93553.85156,34,6,0,31,1
2205309784,-1376,-89,546,7691,-327,-693,-36.46748352,24.67274475,2.617660522,23.97153473,93575.50781,31,8,0,31,1
2205319451,-1364,-55,507,7680,-204,-721,-36.31944275,24.52568054,5.468154907,23.96217155,93568.53125,33,7,1,31,1
2205328992,-1191,-87,366,7631,-150,-764,-36.31944275,21.37567139,9.368148804,23.96217155,93575.875,31,6,0,31,1
2205338919,-1130,-75,374,7577,-63,-786,-36.31944275,21.37567139,9.368148804,23.95748901,93574.82813,28,6,-2,31,1
2205348580,-1177,-83,408,7524,10,-837,-36.32823181,21.38641357,9.373519897,23.95748901,93569.9375,28,6,-3,31,1
2205358243,-1261,-72,321,7461,76,-894,-36.47822571,19.28642273,12.223526,23.96217155,93575.875,30,6,-1,31,1
2205367788,-1288,-78,424,7395,142,-960,-36.18994141,17.79862976,14.03329468,23.96217155,93580.76563,31,7,-4,31,1
2205377719,-1327,-83,345,7331,206,-1030,-36.18994141,17.79862976,14.03329468,23.94812584,93584.98438,32,7,-1,31,1
2205387381,-1333,-104,423,7256,252,-1104,-37.83995056,16.44862366,17.18328857,23.97153473,93592.63281,31,7,-2,31,1
2205397047,-1217,-138,339,7189,296,-1176,-35.60313416,11.95838928,19.29989624,23.96217155,93597.89063,29,6,-3,31,1
2205406588,-1148,-156,231,7113,318,-1246,-37.5531311,9.258392334,21.09989929,23.95748901,93591.96094,29,8,-3,31,1
2205416255,-1156,-242,330,7043,316,-1306,-37.5531311,9.258392334,21.09989929,23.97153473,93597.52344,28,9,-4,31,1
2205426178,-1181,-268,216,6989,313,-1351,-36.20703125,6.710342407,23.50624084,23.96217155,93605.23438,28,9,-4,31,1
2205435839,-1234,-299,362,6933,301,-1390,-37.5585022,1.910827637,23.0586853,23.96217155,93605.23438,29,10,-3,31,1
2205445384,-1040,-378,272,6879,282,-1422,-37.85069275,-3.186721802,25.1469574,23.97153473,93597.52344,28,11,-4,31,1
2205455046,-1055,-404,177,6842,254,-1436,-37.85069275,-3.186721802,25.1469574,23.97153473,93597.52344,25,11,-6,31,1
2205464968,-1067,-416,208,6807,219,-1441,-37.69726563,-7.234771729,23.19256592,23.9668541,93603.82813,26,13,-4,31,1
2205474643,-1115,-382,366,6771,185,-1442,-37.09727478,-9.78477478,22.59257507,23.9668541,93608.71875,28,12,-5,31,1
2205484182,-954,-393,395,6752,179,-1447,-37.09727478,-9.78477478,22.59257507,23.9668541,93594.03906,26,13,-2,31,1
2205493848,-1155,-423,502,6736,177,-1448,-36.34727478,-12.78477478,21.84257507,23.9668541,93591.59375,26,13,-1,31,1
2205503509,-1126,-458,499,6731,185,-1443,-36.94726563,-16.83477783,20.94354248,23.97621727,93605.90625,29,12,0,31,1
2205513432,-1065,-470,560,6729,196,-1432,-34.68945313,-19.67402649,20.18328857,23.97153473,93612.21094,27,13,0,31,1
2205522978,-1119,-432,697,6734,224,-1424,-34.68945313,-19.67402649,20.18328857,23.98558044,93612.88281,28,13,2,31,1
2205532639,-1144,-365,726,6743,273,-1427,-34.08946228,-23.72402954,17.78329468,23.97153473,93597.52344,27,13,1,31,1
2205542306,-1168,-379,689,6751,340,-1447,-35.58555603,-24.46524048,15.97792053,23.97621727,93623.03906,29,11,3,31,1
2205551846,-1210,-356,690,6727,388,-1473,-35.58555603,-24.46524048,15.97792053,23.97153473,93631.78125,30,12,2,31,1
2205561769,-1305,-394,663,6697,427,-1495,-35.58555603,-24.46524048,15.97792053,23.98089981,93616.73438,30,12,2,31,1
2205571436,-1125,-431,551,6667,466,-1516,-33.32823181,-29.39326477,11.92010498,23.97153473,93626.89063,30,13,1,31,1
2205581104,-1032,-423,663,6634,474,-1526,-33.32823181,-29.09326172,9.370101929,23.97153473,93619.54688,28,12,1,31,1
2205590650,-1019,-368,628,6623,503,-1541,-31.5218811,-32.81884766,6.815231323,23.98089981,93611.84375,27,12,2,31,1
2205600312,-1167,-280,733,6605,532,-1566,-31.5218811,-32.81884766,6.815231323,23.99494362,93639.42969,26,11,3,31,1
2205609974,-1234,-319,881,6599,557,-1610,-32.12188721,-33.41885376,3.365219116,23.98089981,93641.20313,30,9,4,31,1
2205619901,-1279,-251,753,6571,609,-1630,-31.06504822,-33.99298096,-0.834777832,23.98089981,93660.78125,30,10,4,31,1
2205629442,-1158,-183,749,6525,650,-1675,-29.41503906,-33.8429718,-3.53477478,23.98558044,93647.14063,30,8,3,31,1
2205639105,-1077,-178,671,6496,686,-1735,-29.41503906,-33.8429718,-3.53477478,23.98089981,93663.22656,27,8,3,31,1
2205648771,-846,-159,675,6457,695,-1795,-28.66210938,-34.57881165,-5.782821655,23.97621727,93667.07813,22,7,2,31,1
2205658693,-706,-26,609,6424,687,-1863,-27.76211548,-34.7288208,-9.082824707,23.98558044,93661.82031,20,5,3,31,1
2205668239,-902,153,598,6390,680,-1966,-27.76211548,-34.7288208,-9.082824707,23.98089981,93660.78125,24,2,2,31,1
2205677907,-966,260,744,6336,667,-2096,-27.75674438,-35.151474,-10.87646484,23.97621727,93667.07813,26,0,3,31,1
2205687569,-923,301,716,6290,657,-2247,-26.70381165,-32.73730469,-16.4210968,23.98089981,93636.3125,24,0,2,31,1
2205697115,-885,215,577,6255,631,-2395,-25.95381165,-30.93731689,-17.47109985,23.98558044,93622.67188,24,1,2,31,1
2205707037,-805,208,629,6222,572,-2523,-25.95381165,-30.93731689,-17.47109985,23.99962616,93623.34375,20,2,0,31,1
2205716703,-807,252,614,6200,504,-2644,-23.2538147,-30.93731689,-21.07110596,23.99494362,93612.51563,20,2,0,31,1
2205726365,-1019,215,575,6183,437,-2763,-23.40429688,-29.59170532,-24.22305298,23.98089981,93624.07813,23,2,1,31,1
2205735905,-935,172,583,6161,353,-2868,-24.00430298,-27.04170227,-27.37304688,23.98558044,93627.5625,26,2,1,63,1
2205745572,-1025,95,487,6151,249,-2950,-24.00430298,-27.04170227,-27.37304688,23.99026299,93613.92188,24,2,0,31,1
2205755495,-1087,11,540,6139,134,-3011,-21.75137329,-25.07998657,-29.46426392,23.98089981,93626.52344,27,3,0,31,1
2205765156,-1025,15,491,6138,17,-3040,-21.75137329,-25.07998657,-29.46426392,23.98089981,93631.41406,29,5,0,31,1
2205774711,-1054,-9,473,6132,-95,-3064,-19.95039368,-24.32461548,-32.00889587,23.98089981,93633.86719,26,4,-1,31,1
2205784372,-1228,-174,549,6127,-204,-3055,-19.95039368,-24.32461548,-32.00889587,23.98089981,93633.86719,31,6,1,31,1
2205794038,-1189,-291,523,6151,-311,-3012,-19.35040283,-19.07608032,-34.86083984,23.97621727,93632.82031,30,7,0,31,1
2205803961,-1190,-438,503,6157,-419,-2920,-18.30039978,-17.57608032,-35.61083984,23.97621727,93662.1875,30,11,0,31,1
2205813502,-1344,-588,550,6197,-518,-2785,-18.30039978,-17.57608032,-35.61083984,23.98558044,93659.375,32,14,1,31,1
2205823168,-1209,-550,663,6243,-593,-2621,-18.29942322,-14.42364502,-38.15644836,23.98089981,93653.4375,33,16,1,31,1
2205832830,-1276,-700,782,6297,-635,-2450,-17.69941711,-9.624130249,-39.35839844,23.99026299,93648.17969,30,16,2,31,1
2205842376,-1291,-848,702,6394,-640,-2247,-17.54942322,-7.074127197,-39.50840759,23.97621727,93659.74219,31,19,5,31,1
2205852038,-1144,-775,888,6484,-640,-2017,-17.54942322,-7.074127197,-39.50840759,23.97153473,93697.85156,31,20,2,31,1
2205861960,-985,-526,636,6583,-624,-1824,-16.34991455,-3.174621582,-40.71377563,23.99494362,93685.92969,27,15,3,31,1
2205871635,-1087,-568,706,6668,-597,-1662,-15.2999115,-0.174621582,-41.76377869,23.97621727,93691.54688,26,15,4,31,1
2205881210,-1069,-496,983,6750,-550,-1505,-15.44746399,4.323913574,-42.35107422,23.98558044,93671.60938,27,14,3,31,1
2205890876,-1015,-439,699,6806,-502,-1374,-15.44746399,4.323913574,-42.35107422,23.97621727,93662.1875,26,14,6,31,1
2205900799,-938,-392,734,6861,-439,-1314,-13.34698486,8.373428345,-41.74766541,23.98558044,93659.375,26,13,3,31,1
2205910460,-842,-371,751,6924,-363,-1209,-15.59698486,14.22343445,-40.24766541,23.98558044,93696.07813,22,11,3,31,1
2205920006,-810,-440,741,6963,-302,-1115,-15.59698486,14.22343445,-40.24766541,23.98558044,93700.97656,21,12,3,31,1
2205929668,-697,-332,604,6999,-219,-1020,-15.29405212,18.71757507,-38.13349915,23.99026299,93721.59375,20,10,1,31,1
2205939591,-701,-247,532,7024,-143,-953,-15.44160461,22.76219177,-36.77423096,23.98089981,93741.53125,19,9,0,31,1
2205948875,-720,-218,651,7039,-67,-904,-16.33721924,27.99803162,-33.6061554,23.99962616,93748.14063,20,8,1,31,1
2205958798,-622,-150,584,7045,12,-874,-17.22940063,30.82118225,-30.58125305,23.99962616,93745.69531,17,7,0,31,1
2205968500,-627,-113,531,7049,96,-862,-17.22940063,30.82118225,-30.58125305,23.99494362,93747.10156,18,6,1,31,1
